{
  "participants": {
    "P1770483825689": {
      "demographics": {
        "age": 20,
        "color_blind": "Yes",
        "device_type": "Desktop computer / Laptop",
        "education": "Less than high school",
        "english_proficiency": "Native speaker",
        "ethnicity": [
          "American Indian or Alaska Native"
        ],
        "gender": "Woman",
        "geographic_location": "China",
        "occupation": "Student",
        "political_orientation": 1,
        "primary_language": "English",
        "ses_ladder": 1,
        "vision_correction": "Glasses"
      },
      "metadata": {
        "condition": "equal",
        "date_readable": "2/7/2026, 12:06:30 PM",
        "debug_mode": true,
        "informed": false,
        "internal_id": "internal_3958394054",
        "majority_group": "red",
        "prolific_pid": "P1770483825689",
        "timestamp": "2026-02-07T17:06:30.647Z"
      },
      "summary": {
        "phase1_score": 14,
        "phase1_trials_count": 40,
        "phase2_score": -1,
        "phase2_trials_count": 5,
        "phase3_trials_count": 40,
        "total_score": 13
      },
      "surveys": {
        "technical_check": {
          "images_loaded": "Yes, all images loaded",
          "technical_difficulties": "No"
        },
        "user_feedback": {
          "clarity_rating": 0,
          "length_rating": "Much too short"
        }
      },
      "trials": {
        "phase1": [
          {
            "block": 1,
            "chosen_face_color": "red",
            "chosen_face_id": 58,
            "chosen_face_is_good": true,
            "condition": "equal",
            "debug_mode": true,
            "images": [
              {
                "color": "red",
                "id": 58,
                "isGood": true,
                "src": "stimuli/faces/face_058_red.png"
              },
              {
                "color": "blue",
                "id": 90,
                "isGood": true,
                "src": "stimuli/faces/face_090_blue.png"
              },
              {
                "color": "blue",
                "id": 37,
                "isGood": true,
                "src": "stimuli/faces/face_037_blue.png"
              },
              {
                "color": "red",
                "id": 0,
                "isGood": true,
                "src": "stimuli/faces/face_000_red.png"
              }
            ],
            "informed": false,
            "majority_group": "red",
            "outcome": 1,
            "participant_id": "P1770483825689",
            "phase": 1,
            "response": 0,
            "rt": 2615,
            "task": "choice",
            "time_elapsed": 92580,
            "total_score": 1,
            "trial_in_block": 1,
            "trial_index": 6,
            "trial_type": "image-multi-choice"
          },
          {
            "condition": "equal",
            "debug_mode": true,
            "informed": false,
            "majority_group": "red",
            "participant_id": "P1770483825689",
            "phase": 1,
            "plugin_version": "2.1.0",
            "stimulus": "\n                <div class=\"feedback positive\">\n                    +1\n                </div>\n            ",
            "task": "feedback",
            "time_elapsed": 93589,
            "trial_index": 7,
            "trial_type": "html-keyboard-response"
          },
          {
            "block": 1,
            "chosen_face_color": "blue",
            "chosen_face_id": 19,
            "chosen_face_is_good": false,
            "condition": "equal",
            "debug_mode": true,
            "images": [
              {
                "color": "blue",
                "id": 90,
                "isGood": true,
                "src": "stimuli/faces/face_090_blue.png"
              },
              {
                "color": "blue",
                "id": 19,
                "isGood": false,
                "src": "stimuli/faces/face_019_blue.png"
              },
              {
                "color": "red",
                "id": 83,
                "isGood": false,
                "src": "stimuli/faces/face_083_red.png"
              },
              {
                "color": "blue",
                "id": 85,
                "isGood": true,
                "src": "stimuli/faces/face_085_blue.png"
              }
            ],
            "informed": false,
            "majority_group": "red",
            "outcome": 1,
            "participant_id": "P1770483825689",
            "phase": 1,
            "response": 1,
            "rt": 337,
            "task": "choice",
            "time_elapsed": 93925,
            "total_score": 2,
            "trial_in_block": 2,
            "trial_index": 8,
            "trial_type": "image-multi-choice"
          },
          {
            "condition": "equal",
            "debug_mode": true,
            "informed": false,
            "majority_group": "red",
            "participant_id": "P1770483825689",
            "phase": 1,
            "plugin_version": "2.1.0",
            "stimulus": "\n                <div class=\"feedback positive\">\n                    +1\n                </div>\n            ",
            "task": "feedback",
            "time_elapsed": 94928,
            "trial_index": 9,
            "trial_type": "html-keyboard-response"
          },
          {
            "block": 1,
            "chosen_face_color": "red",
            "chosen_face_id": 44,
            "chosen_face_is_good": true,
            "condition": "equal",
            "debug_mode": true,
            "images": [
              {
                "color": "blue",
                "id": 20,
                "isGood": true,
                "src": "stimuli/faces/face_020_blue.png"
              },
              {
                "color": "red",
                "id": 44,
                "isGood": true,
                "src": "stimuli/faces/face_044_red.png"
              },
              {
                "color": "red",
                "id": 67,
                "isGood": true,
                "src": "stimuli/faces/face_067_red.png"
              },
              {
                "color": "blue",
                "id": 19,
                "isGood": false,
                "src": "stimuli/faces/face_019_blue.png"
              }
            ],
            "informed": false,
            "majority_group": "red",
            "outcome": 1,
            "participant_id": "P1770483825689",
            "phase": 1,
            "response": 1,
            "rt": 257,
            "task": "choice",
            "time_elapsed": 95186,
            "total_score": 3,
            "trial_in_block": 3,
            "trial_index": 10,
            "trial_type": "image-multi-choice"
          },
          {
            "condition": "equal",
            "debug_mode": true,
            "informed": false,
            "majority_group": "red",
            "participant_id": "P1770483825689",
            "phase": 1,
            "plugin_version": "2.1.0",
            "stimulus": "\n                <div class=\"feedback positive\">\n                    +1\n                </div>\n            ",
            "task": "feedback",
            "time_elapsed": 96194,
            "trial_index": 11,
            "trial_type": "html-keyboard-response"
          },
          {
            "block": 1,
            "chosen_face_color": "red",
            "chosen_face_id": 69,
            "chosen_face_is_good": true,
            "condition": "equal",
            "debug_mode": true,
            "images": [
              {
                "color": "blue",
                "id": 55,
                "isGood": true,
                "src": "stimuli/faces/face_055_blue.png"
              },
              {
                "color": "red",
                "id": 69,
                "isGood": true,
                "src": "stimuli/faces/face_069_red.png"
              },
              {
                "color": "red",
                "id": 27,
                "isGood": false,
                "src": "stimuli/faces/face_027_red.png"
              },
              {
                "color": "blue",
                "id": 19,
                "isGood": false,
                "src": "stimuli/faces/face_019_blue.png"
              }
            ],
            "informed": false,
            "majority_group": "red",
            "outcome": 1,
            "participant_id": "P1770483825689",
            "phase": 1,
            "response": 1,
            "rt": 178,
            "task": "choice",
            "time_elapsed": 96373,
            "total_score": 4,
            "trial_in_block": 4,
            "trial_index": 12,
            "trial_type": "image-multi-choice"
          },
          {
            "condition": "equal",
            "debug_mode": true,
            "informed": false,
            "majority_group": "red",
            "participant_id": "P1770483825689",
            "phase": 1,
            "plugin_version": "2.1.0",
            "stimulus": "\n                <div class=\"feedback positive\">\n                    +1\n                </div>\n            ",
            "task": "feedback",
            "time_elapsed": 97389,
            "trial_index": 13,
            "trial_type": "html-keyboard-response"
          },
          {
            "block": 1,
            "chosen_face_color": "blue",
            "chosen_face_id": 90,
            "chosen_face_is_good": true,
            "condition": "equal",
            "debug_mode": true,
            "images": [
              {
                "color": "red",
                "id": 44,
                "isGood": true,
                "src": "stimuli/faces/face_044_red.png"
              },
              {
                "color": "blue",
                "id": 90,
                "isGood": true,
                "src": "stimuli/faces/face_090_blue.png"
              },
              {
                "color": "red",
                "id": 36,
                "isGood": true,
                "src": "stimuli/faces/face_036_red.png"
              },
              {
                "color": "red",
                "id": 60,
                "isGood": true,
                "src": "stimuli/faces/face_060_red.png"
              }
            ],
            "informed": false,
            "majority_group": "red",
            "outcome": 1,
            "participant_id": "P1770483825689",
            "phase": 1,
            "response": 1,
            "rt": 150,
            "task": "choice",
            "time_elapsed": 97540,
            "total_score": 5,
            "trial_in_block": 5,
            "trial_index": 14,
            "trial_type": "image-multi-choice"
          },
          {
            "condition": "equal",
            "debug_mode": true,
            "informed": false,
            "majority_group": "red",
            "participant_id": "P1770483825689",
            "phase": 1,
            "plugin_version": "2.1.0",
            "stimulus": "\n                <div class=\"feedback positive\">\n                    +1\n                </div>\n            ",
            "task": "feedback",
            "time_elapsed": 98555,
            "trial_index": 15,
            "trial_type": "html-keyboard-response"
          },
          {
            "block": 1,
            "chosen_face_color": "red",
            "chosen_face_id": 44,
            "chosen_face_is_good": true,
            "condition": "equal",
            "debug_mode": true,
            "images": [
              {
                "color": "blue",
                "id": 40,
                "isGood": true,
                "src": "stimuli/faces/face_040_blue.png"
              },
              {
                "color": "red",
                "id": 44,
                "isGood": true,
                "src": "stimuli/faces/face_044_red.png"
              },
              {
                "color": "red",
                "id": 58,
                "isGood": true,
                "src": "stimuli/faces/face_058_red.png"
              },
              {
                "color": "blue",
                "id": 24,
                "isGood": false,
                "src": "stimuli/faces/face_024_blue.png"
              }
            ],
            "informed": false,
            "majority_group": "red",
            "outcome": 1,
            "participant_id": "P1770483825689",
            "phase": 1,
            "response": 1,
            "rt": 115,
            "task": "choice",
            "time_elapsed": 98670,
            "total_score": 6,
            "trial_in_block": 6,
            "trial_index": 16,
            "trial_type": "image-multi-choice"
          },
          {
            "condition": "equal",
            "debug_mode": true,
            "informed": false,
            "majority_group": "red",
            "participant_id": "P1770483825689",
            "phase": 1,
            "plugin_version": "2.1.0",
            "stimulus": "\n                <div class=\"feedback positive\">\n                    +1\n                </div>\n            ",
            "task": "feedback",
            "time_elapsed": 99677,
            "trial_index": 17,
            "trial_type": "html-keyboard-response"
          },
          {
            "block": 1,
            "chosen_face_color": "red",
            "chosen_face_id": 69,
            "chosen_face_is_good": true,
            "condition": "equal",
            "debug_mode": true,
            "images": [
              {
                "color": "red",
                "id": 0,
                "isGood": true,
                "src": "stimuli/faces/face_000_red.png"
              },
              {
                "color": "red",
                "id": 69,
                "isGood": true,
                "src": "stimuli/faces/face_069_red.png"
              },
              {
                "color": "red",
                "id": 67,
                "isGood": true,
                "src": "stimuli/faces/face_067_red.png"
              },
              {
                "color": "blue",
                "id": 40,
                "isGood": true,
                "src": "stimuli/faces/face_040_blue.png"
              }
            ],
            "informed": false,
            "majority_group": "red",
            "outcome": 1,
            "participant_id": "P1770483825689",
            "phase": 1,
            "response": 1,
            "rt": 137,
            "task": "choice",
            "time_elapsed": 99815,
            "total_score": 7,
            "trial_in_block": 7,
            "trial_index": 18,
            "trial_type": "image-multi-choice"
          },
          {
            "condition": "equal",
            "debug_mode": true,
            "informed": false,
            "majority_group": "red",
            "participant_id": "P1770483825689",
            "phase": 1,
            "plugin_version": "2.1.0",
            "stimulus": "\n                <div class=\"feedback positive\">\n                    +1\n                </div>\n            ",
            "task": "feedback",
            "time_elapsed": 100828,
            "trial_index": 19,
            "trial_type": "html-keyboard-response"
          },
          {
            "block": 1,
            "chosen_face_color": "red",
            "chosen_face_id": 69,
            "chosen_face_is_good": true,
            "condition": "equal",
            "debug_mode": true,
            "images": [
              {
                "color": "red",
                "id": 47,
                "isGood": false,
                "src": "stimuli/faces/face_047_red.png"
              },
              {
                "color": "red",
                "id": 69,
                "isGood": true,
                "src": "stimuli/faces/face_069_red.png"
              },
              {
                "color": "blue",
                "id": 37,
                "isGood": true,
                "src": "stimuli/faces/face_037_blue.png"
              },
              {
                "color": "red",
                "id": 0,
                "isGood": true,
                "src": "stimuli/faces/face_000_red.png"
              }
            ],
            "informed": false,
            "majority_group": "red",
            "outcome": 1,
            "participant_id": "P1770483825689",
            "phase": 1,
            "response": 1,
            "rt": 120,
            "task": "choice",
            "time_elapsed": 100948,
            "total_score": 8,
            "trial_in_block": 8,
            "trial_index": 20,
            "trial_type": "image-multi-choice"
          },
          {
            "condition": "equal",
            "debug_mode": true,
            "informed": false,
            "majority_group": "red",
            "participant_id": "P1770483825689",
            "phase": 1,
            "plugin_version": "2.1.0",
            "stimulus": "\n                <div class=\"feedback positive\">\n                    +1\n                </div>\n            ",
            "task": "feedback",
            "time_elapsed": 101963,
            "trial_index": 21,
            "trial_type": "html-keyboard-response"
          },
          {
            "block": 1,
            "chosen_face_color": "blue",
            "chosen_face_id": 40,
            "chosen_face_is_good": true,
            "condition": "equal",
            "debug_mode": true,
            "images": [
              {
                "color": "blue",
                "id": 2,
                "isGood": true,
                "src": "stimuli/faces/face_002_blue.png"
              },
              {
                "color": "blue",
                "id": 40,
                "isGood": true,
                "src": "stimuli/faces/face_040_blue.png"
              },
              {
                "color": "red",
                "id": 27,
                "isGood": false,
                "src": "stimuli/faces/face_027_red.png"
              },
              {
                "color": "red",
                "id": 83,
                "isGood": false,
                "src": "stimuli/faces/face_083_red.png"
              }
            ],
            "informed": false,
            "majority_group": "red",
            "outcome": 1,
            "participant_id": "P1770483825689",
            "phase": 1,
            "response": 1,
            "rt": 162,
            "task": "choice",
            "time_elapsed": 102126,
            "total_score": 9,
            "trial_in_block": 9,
            "trial_index": 22,
            "trial_type": "image-multi-choice"
          },
          {
            "condition": "equal",
            "debug_mode": true,
            "informed": false,
            "majority_group": "red",
            "participant_id": "P1770483825689",
            "phase": 1,
            "plugin_version": "2.1.0",
            "stimulus": "\n                <div class=\"feedback positive\">\n                    +1\n                </div>\n            ",
            "task": "feedback",
            "time_elapsed": 103133,
            "trial_index": 23,
            "trial_type": "html-keyboard-response"
          },
          {
            "block": 1,
            "chosen_face_color": "blue",
            "chosen_face_id": 20,
            "chosen_face_is_good": true,
            "condition": "equal",
            "debug_mode": true,
            "images": [
              {
                "color": "red",
                "id": 83,
                "isGood": false,
                "src": "stimuli/faces/face_083_red.png"
              },
              {
                "color": "blue",
                "id": 20,
                "isGood": true,
                "src": "stimuli/faces/face_020_blue.png"
              },
              {
                "color": "blue",
                "id": 55,
                "isGood": true,
                "src": "stimuli/faces/face_055_blue.png"
              },
              {
                "color": "blue",
                "id": 85,
                "isGood": true,
                "src": "stimuli/faces/face_085_blue.png"
              }
            ],
            "informed": false,
            "majority_group": "red",
            "outcome": 1,
            "participant_id": "P1770483825689",
            "phase": 1,
            "response": 1,
            "rt": 175,
            "task": "choice",
            "time_elapsed": 103309,
            "total_score": 10,
            "trial_in_block": 10,
            "trial_index": 24,
            "trial_type": "image-multi-choice"
          },
          {
            "condition": "equal",
            "debug_mode": true,
            "informed": false,
            "majority_group": "red",
            "participant_id": "P1770483825689",
            "phase": 1,
            "plugin_version": "2.1.0",
            "stimulus": "\n                <div class=\"feedback positive\">\n                    +1\n                </div>\n            ",
            "task": "feedback",
            "time_elapsed": 104320,
            "trial_index": 25,
            "trial_type": "html-keyboard-response"
          },
          {
            "block": 1,
            "chosen_face_color": "red",
            "chosen_face_id": 44,
            "chosen_face_is_good": true,
            "condition": "equal",
            "debug_mode": true,
            "images": [
              {
                "color": "blue",
                "id": 85,
                "isGood": true,
                "src": "stimuli/faces/face_085_blue.png"
              },
              {
                "color": "red",
                "id": 44,
                "isGood": true,
                "src": "stimuli/faces/face_044_red.png"
              },
              {
                "color": "blue",
                "id": 39,
                "isGood": true,
                "src": "stimuli/faces/face_039_blue.png"
              },
              {
                "color": "red",
                "id": 58,
                "isGood": true,
                "src": "stimuli/faces/face_058_red.png"
              }
            ],
            "informed": false,
            "majority_group": "red",
            "outcome": 1,
            "participant_id": "P1770483825689",
            "phase": 1,
            "response": 1,
            "rt": 127,
            "task": "choice",
            "time_elapsed": 104448,
            "total_score": 11,
            "trial_in_block": 11,
            "trial_index": 26,
            "trial_type": "image-multi-choice"
          },
          {
            "condition": "equal",
            "debug_mode": true,
            "informed": false,
            "majority_group": "red",
            "participant_id": "P1770483825689",
            "phase": 1,
            "plugin_version": "2.1.0",
            "stimulus": "\n                <div class=\"feedback positive\">\n                    +1\n                </div>\n            ",
            "task": "feedback",
            "time_elapsed": 105457,
            "trial_index": 27,
            "trial_type": "html-keyboard-response"
          },
          {
            "block": 1,
            "chosen_face_color": "blue",
            "chosen_face_id": 20,
            "chosen_face_is_good": true,
            "condition": "equal",
            "debug_mode": true,
            "images": [
              {
                "color": "blue",
                "id": 90,
                "isGood": true,
                "src": "stimuli/faces/face_090_blue.png"
              },
              {
                "color": "blue",
                "id": 20,
                "isGood": true,
                "src": "stimuli/faces/face_020_blue.png"
              },
              {
                "color": "red",
                "id": 58,
                "isGood": true,
                "src": "stimuli/faces/face_058_red.png"
              },
              {
                "color": "red",
                "id": 36,
                "isGood": true,
                "src": "stimuli/faces/face_036_red.png"
              }
            ],
            "informed": false,
            "majority_group": "red",
            "outcome": 1,
            "participant_id": "P1770483825689",
            "phase": 1,
            "response": 1,
            "rt": 137,
            "task": "choice",
            "time_elapsed": 105594,
            "total_score": 12,
            "trial_in_block": 12,
            "trial_index": 28,
            "trial_type": "image-multi-choice"
          },
          {
            "condition": "equal",
            "debug_mode": true,
            "informed": false,
            "majority_group": "red",
            "participant_id": "P1770483825689",
            "phase": 1,
            "plugin_version": "2.1.0",
            "stimulus": "\n                <div class=\"feedback positive\">\n                    +1\n                </div>\n            ",
            "task": "feedback",
            "time_elapsed": 106596,
            "trial_index": 29,
            "trial_type": "html-keyboard-response"
          },
          {
            "block": 1,
            "chosen_face_color": "red",
            "chosen_face_id": 44,
            "chosen_face_is_good": true,
            "condition": "equal",
            "debug_mode": true,
            "images": [
              {
                "color": "blue",
                "id": 20,
                "isGood": true,
                "src": "stimuli/faces/face_020_blue.png"
              },
              {
                "color": "red",
                "id": 44,
                "isGood": true,
                "src": "stimuli/faces/face_044_red.png"
              },
              {
                "color": "blue",
                "id": 85,
                "isGood": true,
                "src": "stimuli/faces/face_085_blue.png"
              },
              {
                "color": "blue",
                "id": 39,
                "isGood": true,
                "src": "stimuli/faces/face_039_blue.png"
              }
            ],
            "informed": false,
            "majority_group": "red",
            "outcome": 1,
            "participant_id": "P1770483825689",
            "phase": 1,
            "response": 1,
            "rt": 105,
            "task": "choice",
            "time_elapsed": 106702,
            "total_score": 13,
            "trial_in_block": 13,
            "trial_index": 30,
            "trial_type": "image-multi-choice"
          },
          {
            "condition": "equal",
            "debug_mode": true,
            "informed": false,
            "majority_group": "red",
            "participant_id": "P1770483825689",
            "phase": 1,
            "plugin_version": "2.1.0",
            "stimulus": "\n                <div class=\"feedback positive\">\n                    +1\n                </div>\n            ",
            "task": "feedback",
            "time_elapsed": 107704,
            "trial_index": 31,
            "trial_type": "html-keyboard-response"
          },
          {
            "block": 1,
            "chosen_face_color": "red",
            "chosen_face_id": 69,
            "chosen_face_is_good": true,
            "condition": "equal",
            "debug_mode": true,
            "images": [
              {
                "color": "blue",
                "id": 90,
                "isGood": true,
                "src": "stimuli/faces/face_090_blue.png"
              },
              {
                "color": "red",
                "id": 69,
                "isGood": true,
                "src": "stimuli/faces/face_069_red.png"
              },
              {
                "color": "red",
                "id": 27,
                "isGood": false,
                "src": "stimuli/faces/face_027_red.png"
              },
              {
                "color": "red",
                "id": 60,
                "isGood": true,
                "src": "stimuli/faces/face_060_red.png"
              }
            ],
            "informed": false,
            "majority_group": "red",
            "outcome": 1,
            "participant_id": "P1770483825689",
            "phase": 1,
            "response": 1,
            "rt": 214,
            "task": "choice",
            "time_elapsed": 107918,
            "total_score": 14,
            "trial_in_block": 14,
            "trial_index": 32,
            "trial_type": "image-multi-choice"
          },
          {
            "condition": "equal",
            "debug_mode": true,
            "informed": false,
            "majority_group": "red",
            "participant_id": "P1770483825689",
            "phase": 1,
            "plugin_version": "2.1.0",
            "stimulus": "\n                <div class=\"feedback positive\">\n                    +1\n                </div>\n            ",
            "task": "feedback",
            "time_elapsed": 108920,
            "trial_index": 33,
            "trial_type": "html-keyboard-response"
          },
          {
            "block": 1,
            "chosen_face_color": "blue",
            "chosen_face_id": 90,
            "chosen_face_is_good": true,
            "condition": "equal",
            "debug_mode": true,
            "images": [
              {
                "color": "red",
                "id": 69,
                "isGood": true,
                "src": "stimuli/faces/face_069_red.png"
              },
              {
                "color": "blue",
                "id": 90,
                "isGood": true,
                "src": "stimuli/faces/face_090_blue.png"
              },
              {
                "color": "red",
                "id": 44,
                "isGood": true,
                "src": "stimuli/faces/face_044_red.png"
              },
              {
                "color": "red",
                "id": 27,
                "isGood": false,
                "src": "stimuli/faces/face_027_red.png"
              }
            ],
            "informed": false,
            "majority_group": "red",
            "outcome": 1,
            "participant_id": "P1770483825689",
            "phase": 1,
            "response": 1,
            "rt": 91,
            "task": "choice",
            "time_elapsed": 109011,
            "total_score": 15,
            "trial_in_block": 15,
            "trial_index": 34,
            "trial_type": "image-multi-choice"
          },
          {
            "condition": "equal",
            "debug_mode": true,
            "informed": false,
            "majority_group": "red",
            "participant_id": "P1770483825689",
            "phase": 1,
            "plugin_version": "2.1.0",
            "stimulus": "\n                <div class=\"feedback positive\">\n                    +1\n                </div>\n            ",
            "task": "feedback",
            "time_elapsed": 110027,
            "trial_index": 35,
            "trial_type": "html-keyboard-response"
          },
          {
            "block": 1,
            "chosen_face_color": "red",
            "chosen_face_id": 0,
            "chosen_face_is_good": true,
            "condition": "equal",
            "debug_mode": true,
            "images": [
              {
                "color": "blue",
                "id": 90,
                "isGood": true,
                "src": "stimuli/faces/face_090_blue.png"
              },
              {
                "color": "red",
                "id": 0,
                "isGood": true,
                "src": "stimuli/faces/face_000_red.png"
              },
              {
                "color": "red",
                "id": 27,
                "isGood": false,
                "src": "stimuli/faces/face_027_red.png"
              },
              {
                "color": "blue",
                "id": 39,
                "isGood": true,
                "src": "stimuli/faces/face_039_blue.png"
              }
            ],
            "informed": false,
            "majority_group": "red",
            "outcome": 1,
            "participant_id": "P1770483825689",
            "phase": 1,
            "response": 1,
            "rt": 204,
            "task": "choice",
            "time_elapsed": 110231,
            "total_score": 16,
            "trial_in_block": 16,
            "trial_index": 36,
            "trial_type": "image-multi-choice"
          },
          {
            "condition": "equal",
            "debug_mode": true,
            "informed": false,
            "majority_group": "red",
            "participant_id": "P1770483825689",
            "phase": 1,
            "plugin_version": "2.1.0",
            "stimulus": "\n                <div class=\"feedback positive\">\n                    +1\n                </div>\n            ",
            "task": "feedback",
            "time_elapsed": 111242,
            "trial_index": 37,
            "trial_type": "html-keyboard-response"
          },
          {
            "block": 1,
            "chosen_face_color": "blue",
            "chosen_face_id": 20,
            "chosen_face_is_good": true,
            "condition": "equal",
            "debug_mode": true,
            "images": [
              {
                "color": "red",
                "id": 69,
                "isGood": true,
                "src": "stimuli/faces/face_069_red.png"
              },
              {
                "color": "blue",
                "id": 20,
                "isGood": true,
                "src": "stimuli/faces/face_020_blue.png"
              },
              {
                "color": "blue",
                "id": 85,
                "isGood": true,
                "src": "stimuli/faces/face_085_blue.png"
              },
              {
                "color": "red",
                "id": 0,
                "isGood": true,
                "src": "stimuli/faces/face_000_red.png"
              }
            ],
            "informed": false,
            "majority_group": "red",
            "outcome": 1,
            "participant_id": "P1770483825689",
            "phase": 1,
            "response": 1,
            "rt": 219,
            "task": "choice",
            "time_elapsed": 111461,
            "total_score": 17,
            "trial_in_block": 17,
            "trial_index": 38,
            "trial_type": "image-multi-choice"
          },
          {
            "condition": "equal",
            "debug_mode": true,
            "informed": false,
            "majority_group": "red",
            "participant_id": "P1770483825689",
            "phase": 1,
            "plugin_version": "2.1.0",
            "stimulus": "\n                <div class=\"feedback positive\">\n                    +1\n                </div>\n            ",
            "task": "feedback",
            "time_elapsed": 112468,
            "trial_index": 39,
            "trial_type": "html-keyboard-response"
          },
          {
            "block": 1,
            "chosen_face_color": "blue",
            "chosen_face_id": 55,
            "chosen_face_is_good": true,
            "condition": "equal",
            "debug_mode": true,
            "images": [
              {
                "color": "blue",
                "id": 40,
                "isGood": true,
                "src": "stimuli/faces/face_040_blue.png"
              },
              {
                "color": "blue",
                "id": 55,
                "isGood": true,
                "src": "stimuli/faces/face_055_blue.png"
              },
              {
                "color": "red",
                "id": 58,
                "isGood": true,
                "src": "stimuli/faces/face_058_red.png"
              },
              {
                "color": "blue",
                "id": 20,
                "isGood": true,
                "src": "stimuli/faces/face_020_blue.png"
              }
            ],
            "informed": false,
            "majority_group": "red",
            "outcome": 1,
            "participant_id": "P1770483825689",
            "phase": 1,
            "response": 1,
            "rt": 176,
            "task": "choice",
            "time_elapsed": 112645,
            "total_score": 18,
            "trial_in_block": 18,
            "trial_index": 40,
            "trial_type": "image-multi-choice"
          },
          {
            "condition": "equal",
            "debug_mode": true,
            "informed": false,
            "majority_group": "red",
            "participant_id": "P1770483825689",
            "phase": 1,
            "plugin_version": "2.1.0",
            "stimulus": "\n                <div class=\"feedback positive\">\n                    +1\n                </div>\n            ",
            "task": "feedback",
            "time_elapsed": 113650,
            "trial_index": 41,
            "trial_type": "html-keyboard-response"
          },
          {
            "block": 1,
            "chosen_face_color": "red",
            "chosen_face_id": 60,
            "chosen_face_is_good": true,
            "condition": "equal",
            "debug_mode": true,
            "images": [
              {
                "color": "blue",
                "id": 20,
                "isGood": true,
                "src": "stimuli/faces/face_020_blue.png"
              },
              {
                "color": "red",
                "id": 60,
                "isGood": true,
                "src": "stimuli/faces/face_060_red.png"
              },
              {
                "color": "red",
                "id": 67,
                "isGood": true,
                "src": "stimuli/faces/face_067_red.png"
              },
              {
                "color": "red",
                "id": 69,
                "isGood": true,
                "src": "stimuli/faces/face_069_red.png"
              }
            ],
            "informed": false,
            "majority_group": "red",
            "outcome": -5,
            "participant_id": "P1770483825689",
            "phase": 1,
            "response": 1,
            "rt": 104,
            "task": "choice",
            "time_elapsed": 113755,
            "total_score": 13,
            "trial_in_block": 19,
            "trial_index": 42,
            "trial_type": "image-multi-choice"
          },
          {
            "condition": "equal",
            "debug_mode": true,
            "informed": false,
            "majority_group": "red",
            "participant_id": "P1770483825689",
            "phase": 1,
            "plugin_version": "2.1.0",
            "stimulus": "\n                <div class=\"feedback negative\">\n                    -5\n                </div>\n            ",
            "task": "feedback",
            "time_elapsed": 114757,
            "trial_index": 43,
            "trial_type": "html-keyboard-response"
          },
          {
            "block": 1,
            "chosen_face_color": "blue",
            "chosen_face_id": 24,
            "chosen_face_is_good": false,
            "condition": "equal",
            "debug_mode": true,
            "images": [
              {
                "color": "blue",
                "id": 19,
                "isGood": false,
                "src": "stimuli/faces/face_019_blue.png"
              },
              {
                "color": "blue",
                "id": 24,
                "isGood": false,
                "src": "stimuli/faces/face_024_blue.png"
              },
              {
                "color": "red",
                "id": 44,
                "isGood": true,
                "src": "stimuli/faces/face_044_red.png"
              },
              {
                "color": "red",
                "id": 58,
                "isGood": true,
                "src": "stimuli/faces/face_058_red.png"
              }
            ],
            "informed": false,
            "majority_group": "red",
            "outcome": 1,
            "participant_id": "P1770483825689",
            "phase": 1,
            "response": 1,
            "rt": 115,
            "task": "choice",
            "time_elapsed": 114873,
            "total_score": 14,
            "trial_in_block": 20,
            "trial_index": 44,
            "trial_type": "image-multi-choice"
          },
          {
            "condition": "equal",
            "debug_mode": true,
            "informed": false,
            "majority_group": "red",
            "participant_id": "P1770483825689",
            "phase": 1,
            "plugin_version": "2.1.0",
            "stimulus": "\n                <div class=\"feedback positive\">\n                    +1\n                </div>\n            ",
            "task": "feedback",
            "time_elapsed": 115877,
            "trial_index": 45,
            "trial_type": "html-keyboard-response"
          }
        ],
        "phase2": [
          {
            "blue_count": 0,
            "chosen_face_color": "red",
            "chosen_face_id": 60,
            "chosen_face_is_good": true,
            "composition": {
              "blue": 0,
              "red": 4
            },
            "condition": "equal",
            "debug_mode": true,
            "images": [
              {
                "color": "red",
                "id": 83,
                "isGood": false,
                "src": "stimuli/faces/face_083_red.png"
              },
              {
                "color": "red",
                "id": 60,
                "isGood": true,
                "src": "stimuli/faces/face_060_red.png"
              },
              {
                "color": "red",
                "id": 36,
                "isGood": true,
                "src": "stimuli/faces/face_036_red.png"
              },
              {
                "color": "red",
                "id": 67,
                "isGood": true,
                "src": "stimuli/faces/face_067_red.png"
              }
            ],
            "informed": false,
            "majority_group": "red",
            "outcome": 1,
            "participant_id": "P1770483825689",
            "phase": 2,
            "phase2_score": 1,
            "red_count": 4,
            "response": 1,
            "rt": 377,
            "task": "phase2_choice",
            "time_elapsed": 118791,
            "trial_index": 49,
            "trial_type": "image-multi-choice"
          },
          {
            "blue_count": 3,
            "chosen_face_color": "blue",
            "chosen_face_id": 24,
            "chosen_face_is_good": false,
            "composition": {
              "blue": 3,
              "red": 1
            },
            "condition": "equal",
            "debug_mode": true,
            "images": [
              {
                "color": "blue",
                "id": 40,
                "isGood": true,
                "src": "stimuli/faces/face_040_blue.png"
              },
              {
                "color": "blue",
                "id": 24,
                "isGood": false,
                "src": "stimuli/faces/face_024_blue.png"
              },
              {
                "color": "blue",
                "id": 39,
                "isGood": true,
                "src": "stimuli/faces/face_039_blue.png"
              },
              {
                "color": "red",
                "id": 60,
                "isGood": true,
                "src": "stimuli/faces/face_060_red.png"
              }
            ],
            "informed": false,
            "majority_group": "red",
            "outcome": 1,
            "participant_id": "P1770483825689",
            "phase": 2,
            "phase2_score": 2,
            "red_count": 1,
            "response": 1,
            "rt": 397,
            "task": "phase2_choice",
            "time_elapsed": 119189,
            "trial_index": 50,
            "trial_type": "image-multi-choice"
          },
          {
            "blue_count": 4,
            "chosen_face_color": "blue",
            "chosen_face_id": 90,
            "chosen_face_is_good": true,
            "composition": {
              "blue": 4,
              "red": 0
            },
            "condition": "equal",
            "debug_mode": true,
            "images": [
              {
                "color": "blue",
                "id": 40,
                "isGood": true,
                "src": "stimuli/faces/face_040_blue.png"
              },
              {
                "color": "blue",
                "id": 90,
                "isGood": true,
                "src": "stimuli/faces/face_090_blue.png"
              },
              {
                "color": "blue",
                "id": 37,
                "isGood": true,
                "src": "stimuli/faces/face_037_blue.png"
              },
              {
                "color": "blue",
                "id": 24,
                "isGood": false,
                "src": "stimuli/faces/face_024_blue.png"
              }
            ],
            "informed": false,
            "majority_group": "red",
            "outcome": 1,
            "participant_id": "P1770483825689",
            "phase": 2,
            "phase2_score": 3,
            "red_count": 0,
            "response": 1,
            "rt": 249,
            "task": "phase2_choice",
            "time_elapsed": 119438,
            "trial_index": 51,
            "trial_type": "image-multi-choice"
          },
          {
            "blue_count": 1,
            "chosen_face_color": "red",
            "chosen_face_id": 67,
            "chosen_face_is_good": true,
            "composition": {
              "blue": 1,
              "red": 3
            },
            "condition": "equal",
            "debug_mode": true,
            "images": [
              {
                "color": "red",
                "id": 27,
                "isGood": false,
                "src": "stimuli/faces/face_027_red.png"
              },
              {
                "color": "red",
                "id": 67,
                "isGood": true,
                "src": "stimuli/faces/face_067_red.png"
              },
              {
                "color": "red",
                "id": 83,
                "isGood": false,
                "src": "stimuli/faces/face_083_red.png"
              },
              {
                "color": "blue",
                "id": 55,
                "isGood": true,
                "src": "stimuli/faces/face_055_blue.png"
              }
            ],
            "informed": false,
            "majority_group": "red",
            "outcome": 1,
            "participant_id": "P1770483825689",
            "phase": 2,
            "phase2_score": 4,
            "red_count": 3,
            "response": 1,
            "rt": 204,
            "task": "phase2_choice",
            "time_elapsed": 119642,
            "trial_index": 52,
            "trial_type": "image-multi-choice"
          },
          {
            "blue_count": 2,
            "chosen_face_color": "red",
            "chosen_face_id": 27,
            "chosen_face_is_good": false,
            "composition": {
              "blue": 2,
              "red": 2
            },
            "condition": "equal",
            "debug_mode": true,
            "images": [
              {
                "color": "red",
                "id": 44,
                "isGood": true,
                "src": "stimuli/faces/face_044_red.png"
              },
              {
                "color": "red",
                "id": 27,
                "isGood": false,
                "src": "stimuli/faces/face_027_red.png"
              },
              {
                "color": "blue",
                "id": 40,
                "isGood": true,
                "src": "stimuli/faces/face_040_blue.png"
              },
              {
                "color": "blue",
                "id": 39,
                "isGood": true,
                "src": "stimuli/faces/face_039_blue.png"
              }
            ],
            "informed": false,
            "majority_group": "red",
            "outcome": -5,
            "participant_id": "P1770483825689",
            "phase": 2,
            "phase2_score": -1,
            "red_count": 2,
            "response": 1,
            "rt": 275,
            "task": "phase2_choice",
            "time_elapsed": 119918,
            "trial_index": 53,
            "trial_type": "image-multi-choice"
          }
        ],
        "phase3": [
          {
            "condition": "equal",
            "debug_mode": true,
            "face_color": "red",
            "face_id": 83,
            "face_is_good": false,
            "informed": false,
            "majority_group": "red",
            "participant_id": "P1770483825689",
            "phase": 3,
            "plugin_version": "2.1.0",
            "rating": "good",
            "response": 1,
            "rt": 13179,
            "stimulus": "\n                <div style=\"text-align: center;\">\n                    <img src=\"stimuli/faces/face_083_red.png\"\n                         style=\"width: 300px; height: 300px; border: 10px solid red; border-radius: 10px; margin-bottom: 30px;\">\n                    <h3 style=\"margin-top: 20px;\">Do you think this person is good or bad?</h3>\n                </div>\n            ",
            "task": "phase3_goodbad",
            "time_elapsed": 142493,
            "trial_index": 56,
            "trial_type": "html-button-response"
          },
          {
            "condition": "equal",
            "confidence_label": "Slightly confident",
            "confidence_level": 4,
            "debug_mode": true,
            "face_color": "red",
            "face_id": 83,
            "face_is_good": false,
            "informed": false,
            "majority_group": "red",
            "participant_id": "P1770483825689",
            "phase": 3,
            "plugin_version": "2.1.0",
            "previous_goodbad_rating": "good",
            "response": 3,
            "rt": 1666,
            "stimulus": "\n                <div style=\"text-align: center;\">\n                    <img src=\"stimuli/faces/face_083_red.png\"\n                         style=\"width: 300px; height: 300px; border: 10px solid red; border-radius: 10px; margin-bottom: 30px;\">\n                    <h3 style=\"margin-top: 20px;\">How confident are you that your choice is correct?</h3>\n                </div>\n            ",
            "task": "phase3_confidence",
            "time_elapsed": 144160,
            "trial_index": 59,
            "trial_type": "html-button-response"
          },
          {
            "condition": "equal",
            "debug_mode": true,
            "face_color": "red",
            "face_id": 67,
            "face_is_good": true,
            "informed": false,
            "majority_group": "red",
            "participant_id": "P1770483825689",
            "phase": 3,
            "plugin_version": "2.1.0",
            "rating": "good",
            "response": 1,
            "rt": 238,
            "stimulus": "\n                <div style=\"text-align: center;\">\n                    <img src=\"stimuli/faces/face_067_red.png\"\n                         style=\"width: 300px; height: 300px; border: 10px solid red; border-radius: 10px; margin-bottom: 30px;\">\n                    <h3 style=\"margin-top: 20px;\">Do you think this person is good or bad?</h3>\n                </div>\n            ",
            "task": "phase3_goodbad",
            "time_elapsed": 144399,
            "trial_index": 60,
            "trial_type": "html-button-response"
          },
          {
            "condition": "equal",
            "confidence_label": "Slightly confident",
            "confidence_level": 4,
            "debug_mode": true,
            "face_color": "red",
            "face_id": 67,
            "face_is_good": true,
            "informed": false,
            "majority_group": "red",
            "participant_id": "P1770483825689",
            "phase": 3,
            "plugin_version": "2.1.0",
            "previous_goodbad_rating": "good",
            "response": 3,
            "rt": 140,
            "stimulus": "\n                <div style=\"text-align: center;\">\n                    <img src=\"stimuli/faces/face_067_red.png\"\n                         style=\"width: 300px; height: 300px; border: 10px solid red; border-radius: 10px; margin-bottom: 30px;\">\n                    <h3 style=\"margin-top: 20px;\">How confident are you that your choice is correct?</h3>\n                </div>\n            ",
            "task": "phase3_confidence",
            "time_elapsed": 144540,
            "trial_index": 63,
            "trial_type": "html-button-response"
          },
          {
            "condition": "equal",
            "debug_mode": true,
            "face_color": "blue",
            "face_id": 2,
            "face_is_good": true,
            "informed": false,
            "majority_group": "red",
            "participant_id": "P1770483825689",
            "phase": 3,
            "plugin_version": "2.1.0",
            "rating": "good",
            "response": 1,
            "rt": 149,
            "stimulus": "\n                <div style=\"text-align: center;\">\n                    <img src=\"stimuli/faces/face_002_blue.png\"\n                         style=\"width: 300px; height: 300px; border: 10px solid blue; border-radius: 10px; margin-bottom: 30px;\">\n                    <h3 style=\"margin-top: 20px;\">Do you think this person is good or bad?</h3>\n                </div>\n            ",
            "task": "phase3_goodbad",
            "time_elapsed": 144690,
            "trial_index": 64,
            "trial_type": "html-button-response"
          },
          {
            "condition": "equal",
            "confidence_label": "Slightly confident",
            "confidence_level": 4,
            "debug_mode": true,
            "face_color": "blue",
            "face_id": 2,
            "face_is_good": true,
            "informed": false,
            "majority_group": "red",
            "participant_id": "P1770483825689",
            "phase": 3,
            "plugin_version": "2.1.0",
            "previous_goodbad_rating": "good",
            "response": 3,
            "rt": 144,
            "stimulus": "\n                <div style=\"text-align: center;\">\n                    <img src=\"stimuli/faces/face_002_blue.png\"\n                         style=\"width: 300px; height: 300px; border: 10px solid blue; border-radius: 10px; margin-bottom: 30px;\">\n                    <h3 style=\"margin-top: 20px;\">How confident are you that your choice is correct?</h3>\n                </div>\n            ",
            "task": "phase3_confidence",
            "time_elapsed": 144835,
            "trial_index": 67,
            "trial_type": "html-button-response"
          },
          {
            "condition": "equal",
            "debug_mode": true,
            "face_color": "blue",
            "face_id": 24,
            "face_is_good": false,
            "informed": false,
            "majority_group": "red",
            "participant_id": "P1770483825689",
            "phase": 3,
            "plugin_version": "2.1.0",
            "rating": "good",
            "response": 1,
            "rt": 133,
            "stimulus": "\n                <div style=\"text-align: center;\">\n                    <img src=\"stimuli/faces/face_024_blue.png\"\n                         style=\"width: 300px; height: 300px; border: 10px solid blue; border-radius: 10px; margin-bottom: 30px;\">\n                    <h3 style=\"margin-top: 20px;\">Do you think this person is good or bad?</h3>\n                </div>\n            ",
            "task": "phase3_goodbad",
            "time_elapsed": 144969,
            "trial_index": 68,
            "trial_type": "html-button-response"
          },
          {
            "condition": "equal",
            "confidence_label": "Slightly confident",
            "confidence_level": 4,
            "debug_mode": true,
            "face_color": "blue",
            "face_id": 24,
            "face_is_good": false,
            "informed": false,
            "majority_group": "red",
            "participant_id": "P1770483825689",
            "phase": 3,
            "plugin_version": "2.1.0",
            "previous_goodbad_rating": "good",
            "response": 3,
            "rt": 131,
            "stimulus": "\n                <div style=\"text-align: center;\">\n                    <img src=\"stimuli/faces/face_024_blue.png\"\n                         style=\"width: 300px; height: 300px; border: 10px solid blue; border-radius: 10px; margin-bottom: 30px;\">\n                    <h3 style=\"margin-top: 20px;\">How confident are you that your choice is correct?</h3>\n                </div>\n            ",
            "task": "phase3_confidence",
            "time_elapsed": 145101,
            "trial_index": 71,
            "trial_type": "html-button-response"
          },
          {
            "condition": "equal",
            "debug_mode": true,
            "face_color": "red",
            "face_id": 58,
            "face_is_good": true,
            "informed": false,
            "majority_group": "red",
            "participant_id": "P1770483825689",
            "phase": 3,
            "plugin_version": "2.1.0",
            "rating": "good",
            "response": 1,
            "rt": 141,
            "stimulus": "\n                <div style=\"text-align: center;\">\n                    <img src=\"stimuli/faces/face_058_red.png\"\n                         style=\"width: 300px; height: 300px; border: 10px solid red; border-radius: 10px; margin-bottom: 30px;\">\n                    <h3 style=\"margin-top: 20px;\">Do you think this person is good or bad?</h3>\n                </div>\n            ",
            "task": "phase3_goodbad",
            "time_elapsed": 145242,
            "trial_index": 72,
            "trial_type": "html-button-response"
          },
          {
            "condition": "equal",
            "confidence_label": "Slightly confident",
            "confidence_level": 4,
            "debug_mode": true,
            "face_color": "red",
            "face_id": 58,
            "face_is_good": true,
            "informed": false,
            "majority_group": "red",
            "participant_id": "P1770483825689",
            "phase": 3,
            "plugin_version": "2.1.0",
            "previous_goodbad_rating": "good",
            "response": 3,
            "rt": 140,
            "stimulus": "\n                <div style=\"text-align: center;\">\n                    <img src=\"stimuli/faces/face_058_red.png\"\n                         style=\"width: 300px; height: 300px; border: 10px solid red; border-radius: 10px; margin-bottom: 30px;\">\n                    <h3 style=\"margin-top: 20px;\">How confident are you that your choice is correct?</h3>\n                </div>\n            ",
            "task": "phase3_confidence",
            "time_elapsed": 145382,
            "trial_index": 75,
            "trial_type": "html-button-response"
          },
          {
            "condition": "equal",
            "debug_mode": true,
            "face_color": "blue",
            "face_id": 20,
            "face_is_good": true,
            "informed": false,
            "majority_group": "red",
            "participant_id": "P1770483825689",
            "phase": 3,
            "plugin_version": "2.1.0",
            "rating": "good",
            "response": 1,
            "rt": 139,
            "stimulus": "\n                <div style=\"text-align: center;\">\n                    <img src=\"stimuli/faces/face_020_blue.png\"\n                         style=\"width: 300px; height: 300px; border: 10px solid blue; border-radius: 10px; margin-bottom: 30px;\">\n                    <h3 style=\"margin-top: 20px;\">Do you think this person is good or bad?</h3>\n                </div>\n            ",
            "task": "phase3_goodbad",
            "time_elapsed": 145522,
            "trial_index": 76,
            "trial_type": "html-button-response"
          },
          {
            "condition": "equal",
            "confidence_label": "Slightly confident",
            "confidence_level": 4,
            "debug_mode": true,
            "face_color": "blue",
            "face_id": 20,
            "face_is_good": true,
            "informed": false,
            "majority_group": "red",
            "participant_id": "P1770483825689",
            "phase": 3,
            "plugin_version": "2.1.0",
            "previous_goodbad_rating": "good",
            "response": 3,
            "rt": 146,
            "stimulus": "\n                <div style=\"text-align: center;\">\n                    <img src=\"stimuli/faces/face_020_blue.png\"\n                         style=\"width: 300px; height: 300px; border: 10px solid blue; border-radius: 10px; margin-bottom: 30px;\">\n                    <h3 style=\"margin-top: 20px;\">How confident are you that your choice is correct?</h3>\n                </div>\n            ",
            "task": "phase3_confidence",
            "time_elapsed": 145669,
            "trial_index": 79,
            "trial_type": "html-button-response"
          },
          {
            "condition": "equal",
            "debug_mode": true,
            "face_color": "blue",
            "face_id": 40,
            "face_is_good": true,
            "informed": false,
            "majority_group": "red",
            "participant_id": "P1770483825689",
            "phase": 3,
            "plugin_version": "2.1.0",
            "rating": "good",
            "response": 1,
            "rt": 155,
            "stimulus": "\n                <div style=\"text-align: center;\">\n                    <img src=\"stimuli/faces/face_040_blue.png\"\n                         style=\"width: 300px; height: 300px; border: 10px solid blue; border-radius: 10px; margin-bottom: 30px;\">\n                    <h3 style=\"margin-top: 20px;\">Do you think this person is good or bad?</h3>\n                </div>\n            ",
            "task": "phase3_goodbad",
            "time_elapsed": 145824,
            "trial_index": 80,
            "trial_type": "html-button-response"
          },
          {
            "condition": "equal",
            "confidence_label": "Slightly confident",
            "confidence_level": 4,
            "debug_mode": true,
            "face_color": "blue",
            "face_id": 40,
            "face_is_good": true,
            "informed": false,
            "majority_group": "red",
            "participant_id": "P1770483825689",
            "phase": 3,
            "plugin_version": "2.1.0",
            "previous_goodbad_rating": "good",
            "response": 3,
            "rt": 148,
            "stimulus": "\n                <div style=\"text-align: center;\">\n                    <img src=\"stimuli/faces/face_040_blue.png\"\n                         style=\"width: 300px; height: 300px; border: 10px solid blue; border-radius: 10px; margin-bottom: 30px;\">\n                    <h3 style=\"margin-top: 20px;\">How confident are you that your choice is correct?</h3>\n                </div>\n            ",
            "task": "phase3_confidence",
            "time_elapsed": 145973,
            "trial_index": 83,
            "trial_type": "html-button-response"
          },
          {
            "condition": "equal",
            "debug_mode": true,
            "face_color": "red",
            "face_id": 0,
            "face_is_good": true,
            "informed": false,
            "majority_group": "red",
            "participant_id": "P1770483825689",
            "phase": 3,
            "plugin_version": "2.1.0",
            "rating": "good",
            "response": 1,
            "rt": 155,
            "stimulus": "\n                <div style=\"text-align: center;\">\n                    <img src=\"stimuli/faces/face_000_red.png\"\n                         style=\"width: 300px; height: 300px; border: 10px solid red; border-radius: 10px; margin-bottom: 30px;\">\n                    <h3 style=\"margin-top: 20px;\">Do you think this person is good or bad?</h3>\n                </div>\n            ",
            "task": "phase3_goodbad",
            "time_elapsed": 146128,
            "trial_index": 84,
            "trial_type": "html-button-response"
          },
          {
            "condition": "equal",
            "confidence_label": "Slightly confident",
            "confidence_level": 4,
            "debug_mode": true,
            "face_color": "red",
            "face_id": 0,
            "face_is_good": true,
            "informed": false,
            "majority_group": "red",
            "participant_id": "P1770483825689",
            "phase": 3,
            "plugin_version": "2.1.0",
            "previous_goodbad_rating": "good",
            "response": 3,
            "rt": 152,
            "stimulus": "\n                <div style=\"text-align: center;\">\n                    <img src=\"stimuli/faces/face_000_red.png\"\n                         style=\"width: 300px; height: 300px; border: 10px solid red; border-radius: 10px; margin-bottom: 30px;\">\n                    <h3 style=\"margin-top: 20px;\">How confident are you that your choice is correct?</h3>\n                </div>\n            ",
            "task": "phase3_confidence",
            "time_elapsed": 146281,
            "trial_index": 87,
            "trial_type": "html-button-response"
          },
          {
            "condition": "equal",
            "debug_mode": true,
            "face_color": "red",
            "face_id": 44,
            "face_is_good": true,
            "informed": false,
            "majority_group": "red",
            "participant_id": "P1770483825689",
            "phase": 3,
            "plugin_version": "2.1.0",
            "rating": "good",
            "response": 1,
            "rt": 150,
            "stimulus": "\n                <div style=\"text-align: center;\">\n                    <img src=\"stimuli/faces/face_044_red.png\"\n                         style=\"width: 300px; height: 300px; border: 10px solid red; border-radius: 10px; margin-bottom: 30px;\">\n                    <h3 style=\"margin-top: 20px;\">Do you think this person is good or bad?</h3>\n                </div>\n            ",
            "task": "phase3_goodbad",
            "time_elapsed": 146432,
            "trial_index": 88,
            "trial_type": "html-button-response"
          },
          {
            "condition": "equal",
            "confidence_label": "Slightly confident",
            "confidence_level": 4,
            "debug_mode": true,
            "face_color": "red",
            "face_id": 44,
            "face_is_good": true,
            "informed": false,
            "majority_group": "red",
            "participant_id": "P1770483825689",
            "phase": 3,
            "plugin_version": "2.1.0",
            "previous_goodbad_rating": "good",
            "response": 3,
            "rt": 153,
            "stimulus": "\n                <div style=\"text-align: center;\">\n                    <img src=\"stimuli/faces/face_044_red.png\"\n                         style=\"width: 300px; height: 300px; border: 10px solid red; border-radius: 10px; margin-bottom: 30px;\">\n                    <h3 style=\"margin-top: 20px;\">How confident are you that your choice is correct?</h3>\n                </div>\n            ",
            "task": "phase3_confidence",
            "time_elapsed": 146585,
            "trial_index": 91,
            "trial_type": "html-button-response"
          },
          {
            "condition": "equal",
            "debug_mode": true,
            "face_color": "blue",
            "face_id": 55,
            "face_is_good": true,
            "informed": false,
            "majority_group": "red",
            "participant_id": "P1770483825689",
            "phase": 3,
            "plugin_version": "2.1.0",
            "rating": "good",
            "response": 1,
            "rt": 150,
            "stimulus": "\n                <div style=\"text-align: center;\">\n                    <img src=\"stimuli/faces/face_055_blue.png\"\n                         style=\"width: 300px; height: 300px; border: 10px solid blue; border-radius: 10px; margin-bottom: 30px;\">\n                    <h3 style=\"margin-top: 20px;\">Do you think this person is good or bad?</h3>\n                </div>\n            ",
            "task": "phase3_goodbad",
            "time_elapsed": 146736,
            "trial_index": 92,
            "trial_type": "html-button-response"
          },
          {
            "condition": "equal",
            "confidence_label": "Slightly confident",
            "confidence_level": 4,
            "debug_mode": true,
            "face_color": "blue",
            "face_id": 55,
            "face_is_good": true,
            "informed": false,
            "majority_group": "red",
            "participant_id": "P1770483825689",
            "phase": 3,
            "plugin_version": "2.1.0",
            "previous_goodbad_rating": "good",
            "response": 3,
            "rt": 153,
            "stimulus": "\n                <div style=\"text-align: center;\">\n                    <img src=\"stimuli/faces/face_055_blue.png\"\n                         style=\"width: 300px; height: 300px; border: 10px solid blue; border-radius: 10px; margin-bottom: 30px;\">\n                    <h3 style=\"margin-top: 20px;\">How confident are you that your choice is correct?</h3>\n                </div>\n            ",
            "task": "phase3_confidence",
            "time_elapsed": 146890,
            "trial_index": 95,
            "trial_type": "html-button-response"
          },
          {
            "condition": "equal",
            "debug_mode": true,
            "face_color": "blue",
            "face_id": 85,
            "face_is_good": true,
            "informed": false,
            "majority_group": "red",
            "participant_id": "P1770483825689",
            "phase": 3,
            "plugin_version": "2.1.0",
            "rating": "good",
            "response": 1,
            "rt": 155,
            "stimulus": "\n                <div style=\"text-align: center;\">\n                    <img src=\"stimuli/faces/face_085_blue.png\"\n                         style=\"width: 300px; height: 300px; border: 10px solid blue; border-radius: 10px; margin-bottom: 30px;\">\n                    <h3 style=\"margin-top: 20px;\">Do you think this person is good or bad?</h3>\n                </div>\n            ",
            "task": "phase3_goodbad",
            "time_elapsed": 147045,
            "trial_index": 96,
            "trial_type": "html-button-response"
          },
          {
            "condition": "equal",
            "confidence_label": "Slightly confident",
            "confidence_level": 4,
            "debug_mode": true,
            "face_color": "blue",
            "face_id": 85,
            "face_is_good": true,
            "informed": false,
            "majority_group": "red",
            "participant_id": "P1770483825689",
            "phase": 3,
            "plugin_version": "2.1.0",
            "previous_goodbad_rating": "good",
            "response": 3,
            "rt": 150,
            "stimulus": "\n                <div style=\"text-align: center;\">\n                    <img src=\"stimuli/faces/face_085_blue.png\"\n                         style=\"width: 300px; height: 300px; border: 10px solid blue; border-radius: 10px; margin-bottom: 30px;\">\n                    <h3 style=\"margin-top: 20px;\">How confident are you that your choice is correct?</h3>\n                </div>\n            ",
            "task": "phase3_confidence",
            "time_elapsed": 147196,
            "trial_index": 99,
            "trial_type": "html-button-response"
          },
          {
            "condition": "equal",
            "debug_mode": true,
            "face_color": "blue",
            "face_id": 37,
            "face_is_good": true,
            "informed": false,
            "majority_group": "red",
            "participant_id": "P1770483825689",
            "phase": 3,
            "plugin_version": "2.1.0",
            "rating": "good",
            "response": 1,
            "rt": 158,
            "stimulus": "\n                <div style=\"text-align: center;\">\n                    <img src=\"stimuli/faces/face_037_blue.png\"\n                         style=\"width: 300px; height: 300px; border: 10px solid blue; border-radius: 10px; margin-bottom: 30px;\">\n                    <h3 style=\"margin-top: 20px;\">Do you think this person is good or bad?</h3>\n                </div>\n            ",
            "task": "phase3_goodbad",
            "time_elapsed": 147355,
            "trial_index": 100,
            "trial_type": "html-button-response"
          },
          {
            "condition": "equal",
            "confidence_label": "Slightly confident",
            "confidence_level": 4,
            "debug_mode": true,
            "face_color": "blue",
            "face_id": 37,
            "face_is_good": true,
            "informed": false,
            "majority_group": "red",
            "participant_id": "P1770483825689",
            "phase": 3,
            "plugin_version": "2.1.0",
            "previous_goodbad_rating": "good",
            "response": 3,
            "rt": 152,
            "stimulus": "\n                <div style=\"text-align: center;\">\n                    <img src=\"stimuli/faces/face_037_blue.png\"\n                         style=\"width: 300px; height: 300px; border: 10px solid blue; border-radius: 10px; margin-bottom: 30px;\">\n                    <h3 style=\"margin-top: 20px;\">How confident are you that your choice is correct?</h3>\n                </div>\n            ",
            "task": "phase3_confidence",
            "time_elapsed": 147508,
            "trial_index": 103,
            "trial_type": "html-button-response"
          },
          {
            "condition": "equal",
            "debug_mode": true,
            "face_color": "red",
            "face_id": 36,
            "face_is_good": true,
            "informed": false,
            "majority_group": "red",
            "participant_id": "P1770483825689",
            "phase": 3,
            "plugin_version": "2.1.0",
            "rating": "good",
            "response": 1,
            "rt": 155,
            "stimulus": "\n                <div style=\"text-align: center;\">\n                    <img src=\"stimuli/faces/face_036_red.png\"\n                         style=\"width: 300px; height: 300px; border: 10px solid red; border-radius: 10px; margin-bottom: 30px;\">\n                    <h3 style=\"margin-top: 20px;\">Do you think this person is good or bad?</h3>\n                </div>\n            ",
            "task": "phase3_goodbad",
            "time_elapsed": 147664,
            "trial_index": 104,
            "trial_type": "html-button-response"
          },
          {
            "condition": "equal",
            "confidence_label": "Slightly confident",
            "confidence_level": 4,
            "debug_mode": true,
            "face_color": "red",
            "face_id": 36,
            "face_is_good": true,
            "informed": false,
            "majority_group": "red",
            "participant_id": "P1770483825689",
            "phase": 3,
            "plugin_version": "2.1.0",
            "previous_goodbad_rating": "good",
            "response": 3,
            "rt": 148,
            "stimulus": "\n                <div style=\"text-align: center;\">\n                    <img src=\"stimuli/faces/face_036_red.png\"\n                         style=\"width: 300px; height: 300px; border: 10px solid red; border-radius: 10px; margin-bottom: 30px;\">\n                    <h3 style=\"margin-top: 20px;\">How confident are you that your choice is correct?</h3>\n                </div>\n            ",
            "task": "phase3_confidence",
            "time_elapsed": 147813,
            "trial_index": 107,
            "trial_type": "html-button-response"
          },
          {
            "condition": "equal",
            "debug_mode": true,
            "face_color": "blue",
            "face_id": 39,
            "face_is_good": true,
            "informed": false,
            "majority_group": "red",
            "participant_id": "P1770483825689",
            "phase": 3,
            "plugin_version": "2.1.0",
            "rating": "good",
            "response": 1,
            "rt": 153,
            "stimulus": "\n                <div style=\"text-align: center;\">\n                    <img src=\"stimuli/faces/face_039_blue.png\"\n                         style=\"width: 300px; height: 300px; border: 10px solid blue; border-radius: 10px; margin-bottom: 30px;\">\n                    <h3 style=\"margin-top: 20px;\">Do you think this person is good or bad?</h3>\n                </div>\n            ",
            "task": "phase3_goodbad",
            "time_elapsed": 147967,
            "trial_index": 108,
            "trial_type": "html-button-response"
          },
          {
            "condition": "equal",
            "confidence_label": "Slightly confident",
            "confidence_level": 4,
            "debug_mode": true,
            "face_color": "blue",
            "face_id": 39,
            "face_is_good": true,
            "informed": false,
            "majority_group": "red",
            "participant_id": "P1770483825689",
            "phase": 3,
            "plugin_version": "2.1.0",
            "previous_goodbad_rating": "good",
            "response": 3,
            "rt": 153,
            "stimulus": "\n                <div style=\"text-align: center;\">\n                    <img src=\"stimuli/faces/face_039_blue.png\"\n                         style=\"width: 300px; height: 300px; border: 10px solid blue; border-radius: 10px; margin-bottom: 30px;\">\n                    <h3 style=\"margin-top: 20px;\">How confident are you that your choice is correct?</h3>\n                </div>\n            ",
            "task": "phase3_confidence",
            "time_elapsed": 148120,
            "trial_index": 111,
            "trial_type": "html-button-response"
          },
          {
            "condition": "equal",
            "debug_mode": true,
            "face_color": "blue",
            "face_id": 19,
            "face_is_good": false,
            "informed": false,
            "majority_group": "red",
            "participant_id": "P1770483825689",
            "phase": 3,
            "plugin_version": "2.1.0",
            "rating": "good",
            "response": 1,
            "rt": 159,
            "stimulus": "\n                <div style=\"text-align: center;\">\n                    <img src=\"stimuli/faces/face_019_blue.png\"\n                         style=\"width: 300px; height: 300px; border: 10px solid blue; border-radius: 10px; margin-bottom: 30px;\">\n                    <h3 style=\"margin-top: 20px;\">Do you think this person is good or bad?</h3>\n                </div>\n            ",
            "task": "phase3_goodbad",
            "time_elapsed": 148280,
            "trial_index": 112,
            "trial_type": "html-button-response"
          },
          {
            "condition": "equal",
            "confidence_label": "Slightly confident",
            "confidence_level": 4,
            "debug_mode": true,
            "face_color": "blue",
            "face_id": 19,
            "face_is_good": false,
            "informed": false,
            "majority_group": "red",
            "participant_id": "P1770483825689",
            "phase": 3,
            "plugin_version": "2.1.0",
            "previous_goodbad_rating": "good",
            "response": 3,
            "rt": 152,
            "stimulus": "\n                <div style=\"text-align: center;\">\n                    <img src=\"stimuli/faces/face_019_blue.png\"\n                         style=\"width: 300px; height: 300px; border: 10px solid blue; border-radius: 10px; margin-bottom: 30px;\">\n                    <h3 style=\"margin-top: 20px;\">How confident are you that your choice is correct?</h3>\n                </div>\n            ",
            "task": "phase3_confidence",
            "time_elapsed": 148432,
            "trial_index": 115,
            "trial_type": "html-button-response"
          },
          {
            "condition": "equal",
            "debug_mode": true,
            "face_color": "red",
            "face_id": 27,
            "face_is_good": false,
            "informed": false,
            "majority_group": "red",
            "participant_id": "P1770483825689",
            "phase": 3,
            "plugin_version": "2.1.0",
            "rating": "good",
            "response": 1,
            "rt": 147,
            "stimulus": "\n                <div style=\"text-align: center;\">\n                    <img src=\"stimuli/faces/face_027_red.png\"\n                         style=\"width: 300px; height: 300px; border: 10px solid red; border-radius: 10px; margin-bottom: 30px;\">\n                    <h3 style=\"margin-top: 20px;\">Do you think this person is good or bad?</h3>\n                </div>\n            ",
            "task": "phase3_goodbad",
            "time_elapsed": 148580,
            "trial_index": 116,
            "trial_type": "html-button-response"
          },
          {
            "condition": "equal",
            "confidence_label": "Slightly confident",
            "confidence_level": 4,
            "debug_mode": true,
            "face_color": "red",
            "face_id": 27,
            "face_is_good": false,
            "informed": false,
            "majority_group": "red",
            "participant_id": "P1770483825689",
            "phase": 3,
            "plugin_version": "2.1.0",
            "previous_goodbad_rating": "good",
            "response": 3,
            "rt": 142,
            "stimulus": "\n                <div style=\"text-align: center;\">\n                    <img src=\"stimuli/faces/face_027_red.png\"\n                         style=\"width: 300px; height: 300px; border: 10px solid red; border-radius: 10px; margin-bottom: 30px;\">\n                    <h3 style=\"margin-top: 20px;\">How confident are you that your choice is correct?</h3>\n                </div>\n            ",
            "task": "phase3_confidence",
            "time_elapsed": 148723,
            "trial_index": 119,
            "trial_type": "html-button-response"
          },
          {
            "condition": "equal",
            "debug_mode": true,
            "face_color": "red",
            "face_id": 69,
            "face_is_good": true,
            "informed": false,
            "majority_group": "red",
            "participant_id": "P1770483825689",
            "phase": 3,
            "plugin_version": "2.1.0",
            "rating": "good",
            "response": 1,
            "rt": 155,
            "stimulus": "\n                <div style=\"text-align: center;\">\n                    <img src=\"stimuli/faces/face_069_red.png\"\n                         style=\"width: 300px; height: 300px; border: 10px solid red; border-radius: 10px; margin-bottom: 30px;\">\n                    <h3 style=\"margin-top: 20px;\">Do you think this person is good or bad?</h3>\n                </div>\n            ",
            "task": "phase3_goodbad",
            "time_elapsed": 148878,
            "trial_index": 120,
            "trial_type": "html-button-response"
          },
          {
            "condition": "equal",
            "confidence_label": "Slightly confident",
            "confidence_level": 4,
            "debug_mode": true,
            "face_color": "red",
            "face_id": 69,
            "face_is_good": true,
            "informed": false,
            "majority_group": "red",
            "participant_id": "P1770483825689",
            "phase": 3,
            "plugin_version": "2.1.0",
            "previous_goodbad_rating": "good",
            "response": 3,
            "rt": 154,
            "stimulus": "\n                <div style=\"text-align: center;\">\n                    <img src=\"stimuli/faces/face_069_red.png\"\n                         style=\"width: 300px; height: 300px; border: 10px solid red; border-radius: 10px; margin-bottom: 30px;\">\n                    <h3 style=\"margin-top: 20px;\">How confident are you that your choice is correct?</h3>\n                </div>\n            ",
            "task": "phase3_confidence",
            "time_elapsed": 149033,
            "trial_index": 123,
            "trial_type": "html-button-response"
          },
          {
            "condition": "equal",
            "debug_mode": true,
            "face_color": "blue",
            "face_id": 90,
            "face_is_good": true,
            "informed": false,
            "majority_group": "red",
            "participant_id": "P1770483825689",
            "phase": 3,
            "plugin_version": "2.1.0",
            "rating": "good",
            "response": 1,
            "rt": 310,
            "stimulus": "\n                <div style=\"text-align: center;\">\n                    <img src=\"stimuli/faces/face_090_blue.png\"\n                         style=\"width: 300px; height: 300px; border: 10px solid blue; border-radius: 10px; margin-bottom: 30px;\">\n                    <h3 style=\"margin-top: 20px;\">Do you think this person is good or bad?</h3>\n                </div>\n            ",
            "task": "phase3_goodbad",
            "time_elapsed": 149343,
            "trial_index": 124,
            "trial_type": "html-button-response"
          },
          {
            "condition": "equal",
            "confidence_label": "Slightly confident",
            "confidence_level": 4,
            "debug_mode": true,
            "face_color": "blue",
            "face_id": 90,
            "face_is_good": true,
            "informed": false,
            "majority_group": "red",
            "participant_id": "P1770483825689",
            "phase": 3,
            "plugin_version": "2.1.0",
            "previous_goodbad_rating": "good",
            "response": 3,
            "rt": 262,
            "stimulus": "\n                <div style=\"text-align: center;\">\n                    <img src=\"stimuli/faces/face_090_blue.png\"\n                         style=\"width: 300px; height: 300px; border: 10px solid blue; border-radius: 10px; margin-bottom: 30px;\">\n                    <h3 style=\"margin-top: 20px;\">How confident are you that your choice is correct?</h3>\n                </div>\n            ",
            "task": "phase3_confidence",
            "time_elapsed": 149605,
            "trial_index": 127,
            "trial_type": "html-button-response"
          },
          {
            "condition": "equal",
            "debug_mode": true,
            "face_color": "red",
            "face_id": 47,
            "face_is_good": false,
            "informed": false,
            "majority_group": "red",
            "participant_id": "P1770483825689",
            "phase": 3,
            "plugin_version": "2.1.0",
            "rating": "good",
            "response": 1,
            "rt": 224,
            "stimulus": "\n                <div style=\"text-align: center;\">\n                    <img src=\"stimuli/faces/face_047_red.png\"\n                         style=\"width: 300px; height: 300px; border: 10px solid red; border-radius: 10px; margin-bottom: 30px;\">\n                    <h3 style=\"margin-top: 20px;\">Do you think this person is good or bad?</h3>\n                </div>\n            ",
            "task": "phase3_goodbad",
            "time_elapsed": 149830,
            "trial_index": 128,
            "trial_type": "html-button-response"
          },
          {
            "condition": "equal",
            "confidence_label": "Slightly confident",
            "confidence_level": 4,
            "debug_mode": true,
            "face_color": "red",
            "face_id": 47,
            "face_is_good": false,
            "informed": false,
            "majority_group": "red",
            "participant_id": "P1770483825689",
            "phase": 3,
            "plugin_version": "2.1.0",
            "previous_goodbad_rating": "good",
            "response": 3,
            "rt": 262,
            "stimulus": "\n                <div style=\"text-align: center;\">\n                    <img src=\"stimuli/faces/face_047_red.png\"\n                         style=\"width: 300px; height: 300px; border: 10px solid red; border-radius: 10px; margin-bottom: 30px;\">\n                    <h3 style=\"margin-top: 20px;\">How confident are you that your choice is correct?</h3>\n                </div>\n            ",
            "task": "phase3_confidence",
            "time_elapsed": 150093,
            "trial_index": 131,
            "trial_type": "html-button-response"
          },
          {
            "condition": "equal",
            "debug_mode": true,
            "face_color": "red",
            "face_id": 60,
            "face_is_good": true,
            "informed": false,
            "majority_group": "red",
            "participant_id": "P1770483825689",
            "phase": 3,
            "plugin_version": "2.1.0",
            "rating": "good",
            "response": 1,
            "rt": 241,
            "stimulus": "\n                <div style=\"text-align: center;\">\n                    <img src=\"stimuli/faces/face_060_red.png\"\n                         style=\"width: 300px; height: 300px; border: 10px solid red; border-radius: 10px; margin-bottom: 30px;\">\n                    <h3 style=\"margin-top: 20px;\">Do you think this person is good or bad?</h3>\n                </div>\n            ",
            "task": "phase3_goodbad",
            "time_elapsed": 150335,
            "trial_index": 132,
            "trial_type": "html-button-response"
          },
          {
            "condition": "equal",
            "confidence_label": "Slightly confident",
            "confidence_level": 4,
            "debug_mode": true,
            "face_color": "red",
            "face_id": 60,
            "face_is_good": true,
            "informed": false,
            "majority_group": "red",
            "participant_id": "P1770483825689",
            "phase": 3,
            "plugin_version": "2.1.0",
            "previous_goodbad_rating": "good",
            "response": 3,
            "rt": 275,
            "stimulus": "\n                <div style=\"text-align: center;\">\n                    <img src=\"stimuli/faces/face_060_red.png\"\n                         style=\"width: 300px; height: 300px; border: 10px solid red; border-radius: 10px; margin-bottom: 30px;\">\n                    <h3 style=\"margin-top: 20px;\">How confident are you that your choice is correct?</h3>\n                </div>\n            ",
            "task": "phase3_confidence",
            "time_elapsed": 150611,
            "trial_index": 135,
            "trial_type": "html-button-response"
          }
        ]
      }
    }
  }
}