{
  "participants": {
    "P1770755656625": {
      "metadata": {
        "condition": "equal",
        "condition_code": "EXE",
        "date_readable": "2/10/2026, 3:42:55 PM",
        "debug_mode": true,
        "internal_id": "internal_2276304400",
        "majority_group": "red",
        "p1_type": "experimental",
        "p2_exposure": "equal",
        "pilot_mode": true,
        "prolific_pid": "P1770755656625",
        "timestamp": "2026-02-10T20:42:55.569Z"
      },
      "summary": {
        "phase1_score": 20,
        "phase1_trials_count": 40,
        "phase2_score": -6,
        "phase2_trials_count": 6,
        "phase3_trials_count": 10,
        "total_score": 14
      },
      "surveys": {
        "technical_check": {
          "images_loaded": "Yes, all images loaded",
          "technical_difficulties": "No"
        },
        "user_feedback": {
          "clarity_rating": 0,
          "length_rating": "Much too short"
        }
      },
      "trials": {
        "phase1": [
          {
            "block": 1,
            "chosen_face_color": "red",
            "chosen_face_id": 33,
            "chosen_face_is_good": true,
            "condition": "equal",
            "condition_code": "EXE",
            "debug_mode": true,
            "images": [
              {
                "color": "red",
                "id": 33,
                "isGood": true,
                "src": "stimuli/faces/face_033_red.png"
              },
              {
                "color": "red",
                "id": 79,
                "isGood": true,
                "src": "stimuli/faces/face_079_red.png"
              },
              {
                "color": "red",
                "id": 96,
                "isGood": true,
                "src": "stimuli/faces/face_096_red.png"
              },
              {
                "color": "red",
                "id": 17,
                "isGood": true,
                "src": "stimuli/faces/face_017_red.png"
              }
            ],
            "majority_group": "red",
            "outcome": 1,
            "p1_type": "experimental",
            "p2_exposure": "equal",
            "participant_id": "P1770755656625",
            "phase": 1,
            "response": 0,
            "rt": 105,
            "task": "choice",
            "time_elapsed": 2392,
            "total_score": 1,
            "trial_in_block": 1,
            "trial_index": 2,
            "trial_type": "image-multi-choice"
          },
          {
            "condition": "equal",
            "condition_code": "EXE",
            "debug_mode": true,
            "majority_group": "red",
            "p1_type": "experimental",
            "p2_exposure": "equal",
            "participant_id": "P1770755656625",
            "phase": 1,
            "plugin_version": "2.1.0",
            "stimulus": "\n                    <div class=\"feedback positive\">\n                        +1\n                    </div>\n                ",
            "task": "feedback",
            "time_elapsed": 3403,
            "trial_index": 3,
            "trial_type": "html-keyboard-response"
          },
          {
            "block": 1,
            "chosen_face_color": "red",
            "chosen_face_id": 17,
            "chosen_face_is_good": true,
            "condition": "equal",
            "condition_code": "EXE",
            "debug_mode": true,
            "images": [
              {
                "color": "red",
                "id": 17,
                "isGood": true,
                "src": "stimuli/faces/face_017_red.png"
              },
              {
                "color": "blue",
                "id": 57,
                "isGood": true,
                "src": "stimuli/faces/face_057_blue.png"
              },
              {
                "color": "blue",
                "id": 75,
                "isGood": false,
                "src": "stimuli/faces/face_075_blue.png"
              },
              {
                "color": "red",
                "id": 79,
                "isGood": true,
                "src": "stimuli/faces/face_079_red.png"
              }
            ],
            "majority_group": "red",
            "outcome": 1,
            "p1_type": "experimental",
            "p2_exposure": "equal",
            "participant_id": "P1770755656625",
            "phase": 1,
            "response": 0,
            "rt": 108,
            "task": "choice",
            "time_elapsed": 3512,
            "total_score": 2,
            "trial_in_block": 2,
            "trial_index": 4,
            "trial_type": "image-multi-choice"
          },
          {
            "condition": "equal",
            "condition_code": "EXE",
            "debug_mode": true,
            "majority_group": "red",
            "p1_type": "experimental",
            "p2_exposure": "equal",
            "participant_id": "P1770755656625",
            "phase": 1,
            "plugin_version": "2.1.0",
            "stimulus": "\n                    <div class=\"feedback positive\">\n                        +1\n                    </div>\n                ",
            "task": "feedback",
            "time_elapsed": 4526,
            "trial_index": 5,
            "trial_type": "html-keyboard-response"
          },
          {
            "block": 1,
            "chosen_face_color": "blue",
            "chosen_face_id": 90,
            "chosen_face_is_good": true,
            "condition": "equal",
            "condition_code": "EXE",
            "debug_mode": true,
            "images": [
              {
                "color": "blue",
                "id": 90,
                "isGood": true,
                "src": "stimuli/faces/face_090_blue.png"
              },
              {
                "color": "blue",
                "id": 43,
                "isGood": true,
                "src": "stimuli/faces/face_043_blue.png"
              },
              {
                "color": "red",
                "id": 77,
                "isGood": false,
                "src": "stimuli/faces/face_077_red.png"
              },
              {
                "color": "blue",
                "id": 50,
                "isGood": true,
                "src": "stimuli/faces/face_050_blue.png"
              }
            ],
            "majority_group": "red",
            "outcome": 1,
            "p1_type": "experimental",
            "p2_exposure": "equal",
            "participant_id": "P1770755656625",
            "phase": 1,
            "response": 0,
            "rt": 109,
            "task": "choice",
            "time_elapsed": 4635,
            "total_score": 3,
            "trial_in_block": 3,
            "trial_index": 6,
            "trial_type": "image-multi-choice"
          },
          {
            "condition": "equal",
            "condition_code": "EXE",
            "debug_mode": true,
            "majority_group": "red",
            "p1_type": "experimental",
            "p2_exposure": "equal",
            "participant_id": "P1770755656625",
            "phase": 1,
            "plugin_version": "2.1.0",
            "stimulus": "\n                    <div class=\"feedback positive\">\n                        +1\n                    </div>\n                ",
            "task": "feedback",
            "time_elapsed": 5646,
            "trial_index": 7,
            "trial_type": "html-keyboard-response"
          },
          {
            "block": 1,
            "chosen_face_color": "red",
            "chosen_face_id": 79,
            "chosen_face_is_good": true,
            "condition": "equal",
            "condition_code": "EXE",
            "debug_mode": true,
            "images": [
              {
                "color": "red",
                "id": 79,
                "isGood": true,
                "src": "stimuli/faces/face_079_red.png"
              },
              {
                "color": "blue",
                "id": 20,
                "isGood": true,
                "src": "stimuli/faces/face_020_blue.png"
              },
              {
                "color": "red",
                "id": 96,
                "isGood": true,
                "src": "stimuli/faces/face_096_red.png"
              },
              {
                "color": "blue",
                "id": 80,
                "isGood": true,
                "src": "stimuli/faces/face_080_blue.png"
              }
            ],
            "majority_group": "red",
            "outcome": 1,
            "p1_type": "experimental",
            "p2_exposure": "equal",
            "participant_id": "P1770755656625",
            "phase": 1,
            "response": 0,
            "rt": 109,
            "task": "choice",
            "time_elapsed": 5756,
            "total_score": 4,
            "trial_in_block": 4,
            "trial_index": 8,
            "trial_type": "image-multi-choice"
          },
          {
            "condition": "equal",
            "condition_code": "EXE",
            "debug_mode": true,
            "majority_group": "red",
            "p1_type": "experimental",
            "p2_exposure": "equal",
            "participant_id": "P1770755656625",
            "phase": 1,
            "plugin_version": "2.1.0",
            "stimulus": "\n                    <div class=\"feedback positive\">\n                        +1\n                    </div>\n                ",
            "task": "feedback",
            "time_elapsed": 6764,
            "trial_index": 9,
            "trial_type": "html-keyboard-response"
          },
          {
            "block": 1,
            "chosen_face_color": "blue",
            "chosen_face_id": 57,
            "chosen_face_is_good": true,
            "condition": "equal",
            "condition_code": "EXE",
            "debug_mode": true,
            "images": [
              {
                "color": "blue",
                "id": 57,
                "isGood": true,
                "src": "stimuli/faces/face_057_blue.png"
              },
              {
                "color": "blue",
                "id": 12,
                "isGood": true,
                "src": "stimuli/faces/face_012_blue.png"
              },
              {
                "color": "red",
                "id": 17,
                "isGood": true,
                "src": "stimuli/faces/face_017_red.png"
              },
              {
                "color": "red",
                "id": 55,
                "isGood": true,
                "src": "stimuli/faces/face_055_red.png"
              }
            ],
            "majority_group": "red",
            "outcome": 1,
            "p1_type": "experimental",
            "p2_exposure": "equal",
            "participant_id": "P1770755656625",
            "phase": 1,
            "response": 0,
            "rt": 108,
            "task": "choice",
            "time_elapsed": 6873,
            "total_score": 5,
            "trial_in_block": 5,
            "trial_index": 10,
            "trial_type": "image-multi-choice"
          },
          {
            "condition": "equal",
            "condition_code": "EXE",
            "debug_mode": true,
            "majority_group": "red",
            "p1_type": "experimental",
            "p2_exposure": "equal",
            "participant_id": "P1770755656625",
            "phase": 1,
            "plugin_version": "2.1.0",
            "stimulus": "\n                    <div class=\"feedback positive\">\n                        +1\n                    </div>\n                ",
            "task": "feedback",
            "time_elapsed": 7889,
            "trial_index": 11,
            "trial_type": "html-keyboard-response"
          },
          {
            "block": 1,
            "chosen_face_color": "blue",
            "chosen_face_id": 43,
            "chosen_face_is_good": true,
            "condition": "equal",
            "condition_code": "EXE",
            "debug_mode": true,
            "images": [
              {
                "color": "blue",
                "id": 43,
                "isGood": true,
                "src": "stimuli/faces/face_043_blue.png"
              },
              {
                "color": "blue",
                "id": 20,
                "isGood": true,
                "src": "stimuli/faces/face_020_blue.png"
              },
              {
                "color": "blue",
                "id": 57,
                "isGood": true,
                "src": "stimuli/faces/face_057_blue.png"
              },
              {
                "color": "red",
                "id": 86,
                "isGood": true,
                "src": "stimuli/faces/face_086_red.png"
              }
            ],
            "majority_group": "red",
            "outcome": 1,
            "p1_type": "experimental",
            "p2_exposure": "equal",
            "participant_id": "P1770755656625",
            "phase": 1,
            "response": 0,
            "rt": 109,
            "task": "choice",
            "time_elapsed": 7999,
            "total_score": 6,
            "trial_in_block": 6,
            "trial_index": 12,
            "trial_type": "image-multi-choice"
          },
          {
            "condition": "equal",
            "condition_code": "EXE",
            "debug_mode": true,
            "majority_group": "red",
            "p1_type": "experimental",
            "p2_exposure": "equal",
            "participant_id": "P1770755656625",
            "phase": 1,
            "plugin_version": "2.1.0",
            "stimulus": "\n                    <div class=\"feedback positive\">\n                        +1\n                    </div>\n                ",
            "task": "feedback",
            "time_elapsed": 9014,
            "trial_index": 13,
            "trial_type": "html-keyboard-response"
          },
          {
            "block": 1,
            "chosen_face_color": "blue",
            "chosen_face_id": 43,
            "chosen_face_is_good": true,
            "condition": "equal",
            "condition_code": "EXE",
            "debug_mode": true,
            "images": [
              {
                "color": "blue",
                "id": 43,
                "isGood": true,
                "src": "stimuli/faces/face_043_blue.png"
              },
              {
                "color": "red",
                "id": 55,
                "isGood": true,
                "src": "stimuli/faces/face_055_red.png"
              },
              {
                "color": "red",
                "id": 96,
                "isGood": true,
                "src": "stimuli/faces/face_096_red.png"
              },
              {
                "color": "blue",
                "id": 57,
                "isGood": true,
                "src": "stimuli/faces/face_057_blue.png"
              }
            ],
            "majority_group": "red",
            "outcome": 1,
            "p1_type": "experimental",
            "p2_exposure": "equal",
            "participant_id": "P1770755656625",
            "phase": 1,
            "response": 0,
            "rt": 110,
            "task": "choice",
            "time_elapsed": 9124,
            "total_score": 7,
            "trial_in_block": 7,
            "trial_index": 14,
            "trial_type": "image-multi-choice"
          },
          {
            "condition": "equal",
            "condition_code": "EXE",
            "debug_mode": true,
            "majority_group": "red",
            "p1_type": "experimental",
            "p2_exposure": "equal",
            "participant_id": "P1770755656625",
            "phase": 1,
            "plugin_version": "2.1.0",
            "stimulus": "\n                    <div class=\"feedback positive\">\n                        +1\n                    </div>\n                ",
            "task": "feedback",
            "time_elapsed": 10136,
            "trial_index": 15,
            "trial_type": "html-keyboard-response"
          },
          {
            "block": 1,
            "chosen_face_color": "red",
            "chosen_face_id": 23,
            "chosen_face_is_good": true,
            "condition": "equal",
            "condition_code": "EXE",
            "debug_mode": true,
            "images": [
              {
                "color": "red",
                "id": 23,
                "isGood": true,
                "src": "stimuli/faces/face_023_red.png"
              },
              {
                "color": "red",
                "id": 79,
                "isGood": true,
                "src": "stimuli/faces/face_079_red.png"
              },
              {
                "color": "blue",
                "id": 40,
                "isGood": true,
                "src": "stimuli/faces/face_040_blue.png"
              },
              {
                "color": "blue",
                "id": 50,
                "isGood": true,
                "src": "stimuli/faces/face_050_blue.png"
              }
            ],
            "majority_group": "red",
            "outcome": 1,
            "p1_type": "experimental",
            "p2_exposure": "equal",
            "participant_id": "P1770755656625",
            "phase": 1,
            "response": 0,
            "rt": 108,
            "task": "choice",
            "time_elapsed": 10245,
            "total_score": 8,
            "trial_in_block": 8,
            "trial_index": 16,
            "trial_type": "image-multi-choice"
          },
          {
            "condition": "equal",
            "condition_code": "EXE",
            "debug_mode": true,
            "majority_group": "red",
            "p1_type": "experimental",
            "p2_exposure": "equal",
            "participant_id": "P1770755656625",
            "phase": 1,
            "plugin_version": "2.1.0",
            "stimulus": "\n                    <div class=\"feedback positive\">\n                        +1\n                    </div>\n                ",
            "task": "feedback",
            "time_elapsed": 11259,
            "trial_index": 17,
            "trial_type": "html-keyboard-response"
          },
          {
            "block": 1,
            "chosen_face_color": "red",
            "chosen_face_id": 55,
            "chosen_face_is_good": true,
            "condition": "equal",
            "condition_code": "EXE",
            "debug_mode": true,
            "images": [
              {
                "color": "red",
                "id": 55,
                "isGood": true,
                "src": "stimuli/faces/face_055_red.png"
              },
              {
                "color": "red",
                "id": 17,
                "isGood": true,
                "src": "stimuli/faces/face_017_red.png"
              },
              {
                "color": "blue",
                "id": 50,
                "isGood": true,
                "src": "stimuli/faces/face_050_blue.png"
              },
              {
                "color": "blue",
                "id": 12,
                "isGood": true,
                "src": "stimuli/faces/face_012_blue.png"
              }
            ],
            "majority_group": "red",
            "outcome": 1,
            "p1_type": "experimental",
            "p2_exposure": "equal",
            "participant_id": "P1770755656625",
            "phase": 1,
            "response": 0,
            "rt": 108,
            "task": "choice",
            "time_elapsed": 11368,
            "total_score": 9,
            "trial_in_block": 9,
            "trial_index": 18,
            "trial_type": "image-multi-choice"
          },
          {
            "condition": "equal",
            "condition_code": "EXE",
            "debug_mode": true,
            "majority_group": "red",
            "p1_type": "experimental",
            "p2_exposure": "equal",
            "participant_id": "P1770755656625",
            "phase": 1,
            "plugin_version": "2.1.0",
            "stimulus": "\n                    <div class=\"feedback positive\">\n                        +1\n                    </div>\n                ",
            "task": "feedback",
            "time_elapsed": 12380,
            "trial_index": 19,
            "trial_type": "html-keyboard-response"
          },
          {
            "block": 1,
            "chosen_face_color": "red",
            "chosen_face_id": 79,
            "chosen_face_is_good": true,
            "condition": "equal",
            "condition_code": "EXE",
            "debug_mode": true,
            "images": [
              {
                "color": "red",
                "id": 79,
                "isGood": true,
                "src": "stimuli/faces/face_079_red.png"
              },
              {
                "color": "red",
                "id": 96,
                "isGood": true,
                "src": "stimuli/faces/face_096_red.png"
              },
              {
                "color": "red",
                "id": 33,
                "isGood": true,
                "src": "stimuli/faces/face_033_red.png"
              },
              {
                "color": "blue",
                "id": 50,
                "isGood": true,
                "src": "stimuli/faces/face_050_blue.png"
              }
            ],
            "majority_group": "red",
            "outcome": 1,
            "p1_type": "experimental",
            "p2_exposure": "equal",
            "participant_id": "P1770755656625",
            "phase": 1,
            "response": 0,
            "rt": 108,
            "task": "choice",
            "time_elapsed": 12489,
            "total_score": 10,
            "trial_in_block": 10,
            "trial_index": 20,
            "trial_type": "image-multi-choice"
          },
          {
            "condition": "equal",
            "condition_code": "EXE",
            "debug_mode": true,
            "majority_group": "red",
            "p1_type": "experimental",
            "p2_exposure": "equal",
            "participant_id": "P1770755656625",
            "phase": 1,
            "plugin_version": "2.1.0",
            "stimulus": "\n                    <div class=\"feedback positive\">\n                        +1\n                    </div>\n                ",
            "task": "feedback",
            "time_elapsed": 13499,
            "trial_index": 21,
            "trial_type": "html-keyboard-response"
          },
          {
            "block": 1,
            "chosen_face_color": "blue",
            "chosen_face_id": 80,
            "chosen_face_is_good": true,
            "condition": "equal",
            "condition_code": "EXE",
            "debug_mode": true,
            "images": [
              {
                "color": "blue",
                "id": 80,
                "isGood": true,
                "src": "stimuli/faces/face_080_blue.png"
              },
              {
                "color": "red",
                "id": 79,
                "isGood": true,
                "src": "stimuli/faces/face_079_red.png"
              },
              {
                "color": "red",
                "id": 33,
                "isGood": true,
                "src": "stimuli/faces/face_033_red.png"
              },
              {
                "color": "red",
                "id": 96,
                "isGood": true,
                "src": "stimuli/faces/face_096_red.png"
              }
            ],
            "majority_group": "red",
            "outcome": 1,
            "p1_type": "experimental",
            "p2_exposure": "equal",
            "participant_id": "P1770755656625",
            "phase": 1,
            "response": 0,
            "rt": 109,
            "task": "choice",
            "time_elapsed": 13609,
            "total_score": 11,
            "trial_in_block": 11,
            "trial_index": 22,
            "trial_type": "image-multi-choice"
          },
          {
            "condition": "equal",
            "condition_code": "EXE",
            "debug_mode": true,
            "majority_group": "red",
            "p1_type": "experimental",
            "p2_exposure": "equal",
            "participant_id": "P1770755656625",
            "phase": 1,
            "plugin_version": "2.1.0",
            "stimulus": "\n                    <div class=\"feedback positive\">\n                        +1\n                    </div>\n                ",
            "task": "feedback",
            "time_elapsed": 14621,
            "trial_index": 23,
            "trial_type": "html-keyboard-response"
          },
          {
            "block": 1,
            "chosen_face_color": "blue",
            "chosen_face_id": 57,
            "chosen_face_is_good": true,
            "condition": "equal",
            "condition_code": "EXE",
            "debug_mode": true,
            "images": [
              {
                "color": "blue",
                "id": 57,
                "isGood": true,
                "src": "stimuli/faces/face_057_blue.png"
              },
              {
                "color": "blue",
                "id": 75,
                "isGood": false,
                "src": "stimuli/faces/face_075_blue.png"
              },
              {
                "color": "red",
                "id": 79,
                "isGood": true,
                "src": "stimuli/faces/face_079_red.png"
              },
              {
                "color": "blue",
                "id": 12,
                "isGood": true,
                "src": "stimuli/faces/face_012_blue.png"
              }
            ],
            "majority_group": "red",
            "outcome": 1,
            "p1_type": "experimental",
            "p2_exposure": "equal",
            "participant_id": "P1770755656625",
            "phase": 1,
            "response": 0,
            "rt": 109,
            "task": "choice",
            "time_elapsed": 14730,
            "total_score": 12,
            "trial_in_block": 12,
            "trial_index": 24,
            "trial_type": "image-multi-choice"
          },
          {
            "condition": "equal",
            "condition_code": "EXE",
            "debug_mode": true,
            "majority_group": "red",
            "p1_type": "experimental",
            "p2_exposure": "equal",
            "participant_id": "P1770755656625",
            "phase": 1,
            "plugin_version": "2.1.0",
            "stimulus": "\n                    <div class=\"feedback positive\">\n                        +1\n                    </div>\n                ",
            "task": "feedback",
            "time_elapsed": 15731,
            "trial_index": 25,
            "trial_type": "html-keyboard-response"
          },
          {
            "block": 1,
            "chosen_face_color": "red",
            "chosen_face_id": 23,
            "chosen_face_is_good": true,
            "condition": "equal",
            "condition_code": "EXE",
            "debug_mode": true,
            "images": [
              {
                "color": "red",
                "id": 23,
                "isGood": true,
                "src": "stimuli/faces/face_023_red.png"
              },
              {
                "color": "red",
                "id": 44,
                "isGood": true,
                "src": "stimuli/faces/face_044_red.png"
              },
              {
                "color": "red",
                "id": 79,
                "isGood": true,
                "src": "stimuli/faces/face_079_red.png"
              },
              {
                "color": "red",
                "id": 77,
                "isGood": false,
                "src": "stimuli/faces/face_077_red.png"
              }
            ],
            "majority_group": "red",
            "outcome": 1,
            "p1_type": "experimental",
            "p2_exposure": "equal",
            "participant_id": "P1770755656625",
            "phase": 1,
            "response": 0,
            "rt": 111,
            "task": "choice",
            "time_elapsed": 15842,
            "total_score": 13,
            "trial_in_block": 13,
            "trial_index": 26,
            "trial_type": "image-multi-choice"
          },
          {
            "condition": "equal",
            "condition_code": "EXE",
            "debug_mode": true,
            "majority_group": "red",
            "p1_type": "experimental",
            "p2_exposure": "equal",
            "participant_id": "P1770755656625",
            "phase": 1,
            "plugin_version": "2.1.0",
            "stimulus": "\n                    <div class=\"feedback positive\">\n                        +1\n                    </div>\n                ",
            "task": "feedback",
            "time_elapsed": 16854,
            "trial_index": 27,
            "trial_type": "html-keyboard-response"
          },
          {
            "block": 1,
            "chosen_face_color": "red",
            "chosen_face_id": 86,
            "chosen_face_is_good": true,
            "condition": "equal",
            "condition_code": "EXE",
            "debug_mode": true,
            "images": [
              {
                "color": "red",
                "id": 86,
                "isGood": true,
                "src": "stimuli/faces/face_086_red.png"
              },
              {
                "color": "red",
                "id": 23,
                "isGood": true,
                "src": "stimuli/faces/face_023_red.png"
              },
              {
                "color": "red",
                "id": 44,
                "isGood": true,
                "src": "stimuli/faces/face_044_red.png"
              },
              {
                "color": "red",
                "id": 96,
                "isGood": true,
                "src": "stimuli/faces/face_096_red.png"
              }
            ],
            "majority_group": "red",
            "outcome": 1,
            "p1_type": "experimental",
            "p2_exposure": "equal",
            "participant_id": "P1770755656625",
            "phase": 1,
            "response": 0,
            "rt": 109,
            "task": "choice",
            "time_elapsed": 16964,
            "total_score": 14,
            "trial_in_block": 14,
            "trial_index": 28,
            "trial_type": "image-multi-choice"
          },
          {
            "condition": "equal",
            "condition_code": "EXE",
            "debug_mode": true,
            "majority_group": "red",
            "p1_type": "experimental",
            "p2_exposure": "equal",
            "participant_id": "P1770755656625",
            "phase": 1,
            "plugin_version": "2.1.0",
            "stimulus": "\n                    <div class=\"feedback positive\">\n                        +1\n                    </div>\n                ",
            "task": "feedback",
            "time_elapsed": 17975,
            "trial_index": 29,
            "trial_type": "html-keyboard-response"
          },
          {
            "block": 1,
            "chosen_face_color": "red",
            "chosen_face_id": 77,
            "chosen_face_is_good": false,
            "condition": "equal",
            "condition_code": "EXE",
            "debug_mode": true,
            "images": [
              {
                "color": "red",
                "id": 77,
                "isGood": false,
                "src": "stimuli/faces/face_077_red.png"
              },
              {
                "color": "blue",
                "id": 12,
                "isGood": true,
                "src": "stimuli/faces/face_012_blue.png"
              },
              {
                "color": "red",
                "id": 33,
                "isGood": true,
                "src": "stimuli/faces/face_033_red.png"
              },
              {
                "color": "red",
                "id": 96,
                "isGood": true,
                "src": "stimuli/faces/face_096_red.png"
              }
            ],
            "majority_group": "red",
            "outcome": 1,
            "p1_type": "experimental",
            "p2_exposure": "equal",
            "participant_id": "P1770755656625",
            "phase": 1,
            "response": 0,
            "rt": 109,
            "task": "choice",
            "time_elapsed": 18084,
            "total_score": 15,
            "trial_in_block": 15,
            "trial_index": 30,
            "trial_type": "image-multi-choice"
          },
          {
            "condition": "equal",
            "condition_code": "EXE",
            "debug_mode": true,
            "majority_group": "red",
            "p1_type": "experimental",
            "p2_exposure": "equal",
            "participant_id": "P1770755656625",
            "phase": 1,
            "plugin_version": "2.1.0",
            "stimulus": "\n                    <div class=\"feedback positive\">\n                        +1\n                    </div>\n                ",
            "task": "feedback",
            "time_elapsed": 19094,
            "trial_index": 31,
            "trial_type": "html-keyboard-response"
          },
          {
            "block": 1,
            "chosen_face_color": "blue",
            "chosen_face_id": 20,
            "chosen_face_is_good": true,
            "condition": "equal",
            "condition_code": "EXE",
            "debug_mode": true,
            "images": [
              {
                "color": "blue",
                "id": 20,
                "isGood": true,
                "src": "stimuli/faces/face_020_blue.png"
              },
              {
                "color": "red",
                "id": 79,
                "isGood": true,
                "src": "stimuli/faces/face_079_red.png"
              },
              {
                "color": "blue",
                "id": 90,
                "isGood": true,
                "src": "stimuli/faces/face_090_blue.png"
              },
              {
                "color": "blue",
                "id": 57,
                "isGood": true,
                "src": "stimuli/faces/face_057_blue.png"
              }
            ],
            "majority_group": "red",
            "outcome": 1,
            "p1_type": "experimental",
            "p2_exposure": "equal",
            "participant_id": "P1770755656625",
            "phase": 1,
            "response": 0,
            "rt": 110,
            "task": "choice",
            "time_elapsed": 19205,
            "total_score": 16,
            "trial_in_block": 16,
            "trial_index": 32,
            "trial_type": "image-multi-choice"
          },
          {
            "condition": "equal",
            "condition_code": "EXE",
            "debug_mode": true,
            "majority_group": "red",
            "p1_type": "experimental",
            "p2_exposure": "equal",
            "participant_id": "P1770755656625",
            "phase": 1,
            "plugin_version": "2.1.0",
            "stimulus": "\n                    <div class=\"feedback positive\">\n                        +1\n                    </div>\n                ",
            "task": "feedback",
            "time_elapsed": 20220,
            "trial_index": 33,
            "trial_type": "html-keyboard-response"
          },
          {
            "block": 1,
            "chosen_face_color": "blue",
            "chosen_face_id": 80,
            "chosen_face_is_good": true,
            "condition": "equal",
            "condition_code": "EXE",
            "debug_mode": true,
            "images": [
              {
                "color": "blue",
                "id": 80,
                "isGood": true,
                "src": "stimuli/faces/face_080_blue.png"
              },
              {
                "color": "blue",
                "id": 90,
                "isGood": true,
                "src": "stimuli/faces/face_090_blue.png"
              },
              {
                "color": "blue",
                "id": 75,
                "isGood": false,
                "src": "stimuli/faces/face_075_blue.png"
              },
              {
                "color": "blue",
                "id": 76,
                "isGood": true,
                "src": "stimuli/faces/face_076_blue.png"
              }
            ],
            "majority_group": "red",
            "outcome": 1,
            "p1_type": "experimental",
            "p2_exposure": "equal",
            "participant_id": "P1770755656625",
            "phase": 1,
            "response": 0,
            "rt": 108,
            "task": "choice",
            "time_elapsed": 20328,
            "total_score": 17,
            "trial_in_block": 17,
            "trial_index": 34,
            "trial_type": "image-multi-choice"
          },
          {
            "condition": "equal",
            "condition_code": "EXE",
            "debug_mode": true,
            "majority_group": "red",
            "p1_type": "experimental",
            "p2_exposure": "equal",
            "participant_id": "P1770755656625",
            "phase": 1,
            "plugin_version": "2.1.0",
            "stimulus": "\n                    <div class=\"feedback positive\">\n                        +1\n                    </div>\n                ",
            "task": "feedback",
            "time_elapsed": 21340,
            "trial_index": 35,
            "trial_type": "html-keyboard-response"
          },
          {
            "block": 1,
            "chosen_face_color": "red",
            "chosen_face_id": 58,
            "chosen_face_is_good": true,
            "condition": "equal",
            "condition_code": "EXE",
            "debug_mode": true,
            "images": [
              {
                "color": "red",
                "id": 58,
                "isGood": true,
                "src": "stimuli/faces/face_058_red.png"
              },
              {
                "color": "red",
                "id": 86,
                "isGood": true,
                "src": "stimuli/faces/face_086_red.png"
              },
              {
                "color": "red",
                "id": 77,
                "isGood": false,
                "src": "stimuli/faces/face_077_red.png"
              },
              {
                "color": "red",
                "id": 44,
                "isGood": true,
                "src": "stimuli/faces/face_044_red.png"
              }
            ],
            "majority_group": "red",
            "outcome": 1,
            "p1_type": "experimental",
            "p2_exposure": "equal",
            "participant_id": "P1770755656625",
            "phase": 1,
            "response": 0,
            "rt": 109,
            "task": "choice",
            "time_elapsed": 21449,
            "total_score": 18,
            "trial_in_block": 18,
            "trial_index": 36,
            "trial_type": "image-multi-choice"
          },
          {
            "condition": "equal",
            "condition_code": "EXE",
            "debug_mode": true,
            "majority_group": "red",
            "p1_type": "experimental",
            "p2_exposure": "equal",
            "participant_id": "P1770755656625",
            "phase": 1,
            "plugin_version": "2.1.0",
            "stimulus": "\n                    <div class=\"feedback positive\">\n                        +1\n                    </div>\n                ",
            "task": "feedback",
            "time_elapsed": 22459,
            "trial_index": 37,
            "trial_type": "html-keyboard-response"
          },
          {
            "block": 1,
            "chosen_face_color": "blue",
            "chosen_face_id": 20,
            "chosen_face_is_good": true,
            "condition": "equal",
            "condition_code": "EXE",
            "debug_mode": true,
            "images": [
              {
                "color": "blue",
                "id": 20,
                "isGood": true,
                "src": "stimuli/faces/face_020_blue.png"
              },
              {
                "color": "red",
                "id": 55,
                "isGood": true,
                "src": "stimuli/faces/face_055_red.png"
              },
              {
                "color": "red",
                "id": 44,
                "isGood": true,
                "src": "stimuli/faces/face_044_red.png"
              },
              {
                "color": "red",
                "id": 23,
                "isGood": true,
                "src": "stimuli/faces/face_023_red.png"
              }
            ],
            "majority_group": "red",
            "outcome": 1,
            "p1_type": "experimental",
            "p2_exposure": "equal",
            "participant_id": "P1770755656625",
            "phase": 1,
            "response": 0,
            "rt": 106,
            "task": "choice",
            "time_elapsed": 22566,
            "total_score": 19,
            "trial_in_block": 19,
            "trial_index": 38,
            "trial_type": "image-multi-choice"
          },
          {
            "condition": "equal",
            "condition_code": "EXE",
            "debug_mode": true,
            "majority_group": "red",
            "p1_type": "experimental",
            "p2_exposure": "equal",
            "participant_id": "P1770755656625",
            "phase": 1,
            "plugin_version": "2.1.0",
            "stimulus": "\n                    <div class=\"feedback positive\">\n                        +1\n                    </div>\n                ",
            "task": "feedback",
            "time_elapsed": 23578,
            "trial_index": 39,
            "trial_type": "html-keyboard-response"
          },
          {
            "block": 1,
            "chosen_face_color": "blue",
            "chosen_face_id": 76,
            "chosen_face_is_good": true,
            "condition": "equal",
            "condition_code": "EXE",
            "debug_mode": true,
            "images": [
              {
                "color": "blue",
                "id": 76,
                "isGood": true,
                "src": "stimuli/faces/face_076_blue.png"
              },
              {
                "color": "blue",
                "id": 12,
                "isGood": true,
                "src": "stimuli/faces/face_012_blue.png"
              },
              {
                "color": "red",
                "id": 55,
                "isGood": true,
                "src": "stimuli/faces/face_055_red.png"
              },
              {
                "color": "red",
                "id": 96,
                "isGood": true,
                "src": "stimuli/faces/face_096_red.png"
              }
            ],
            "majority_group": "red",
            "outcome": 1,
            "p1_type": "experimental",
            "p2_exposure": "equal",
            "participant_id": "P1770755656625",
            "phase": 1,
            "response": 0,
            "rt": 107,
            "task": "choice",
            "time_elapsed": 23685,
            "total_score": 20,
            "trial_in_block": 20,
            "trial_index": 40,
            "trial_type": "image-multi-choice"
          },
          {
            "condition": "equal",
            "condition_code": "EXE",
            "debug_mode": true,
            "majority_group": "red",
            "p1_type": "experimental",
            "p2_exposure": "equal",
            "participant_id": "P1770755656625",
            "phase": 1,
            "plugin_version": "2.1.0",
            "stimulus": "\n                    <div class=\"feedback positive\">\n                        +1\n                    </div>\n                ",
            "task": "feedback",
            "time_elapsed": 24686,
            "trial_index": 41,
            "trial_type": "html-keyboard-response"
          }
        ],
        "phase2": [
          {
            "condition": "equal",
            "condition_code": "EXE",
            "debug_mode": true,
            "face_color": "red",
            "face_id": "n120",
            "face_is_good": true,
            "image_path": "stimuli/faces/face_n120_red.png",
            "majority_group": "red",
            "outcome": 1,
            "p1_type": "experimental",
            "p2_exposure": "equal",
            "participant_id": "P1770755656625",
            "phase": 2,
            "phase2_score": 1,
            "plugin_version": "2.1.0",
            "response": 73,
            "rt": 10475,
            "slider_rating": 73,
            "slider_start": 50,
            "stimulus": "\n                <div style=\"text-align: center;\">\n                    <img src=\"stimuli/faces/face_n120_red.png\"\n                         style=\"width: 300px; height: 300px; border: 10px solid red; border-radius: 10px; margin-bottom: 30px;\">\n                </div>\n            ",
            "task": "phase2_slider",
            "time_elapsed": 38828,
            "trial_index": 45,
            "trial_type": "html-slider-response"
          },
          {
            "condition": "equal",
            "condition_code": "EXE",
            "debug_mode": true,
            "face_color": "red",
            "face_id": "n077",
            "face_is_good": true,
            "image_path": "stimuli/faces/face_n077_red.png",
            "majority_group": "red",
            "outcome": 1,
            "p1_type": "experimental",
            "p2_exposure": "equal",
            "participant_id": "P1770755656625",
            "phase": 2,
            "phase2_score": 2,
            "plugin_version": "2.1.0",
            "response": 2,
            "rt": 1503,
            "slider_rating": 2,
            "slider_start": 50,
            "stimulus": "\n                <div style=\"text-align: center;\">\n                    <img src=\"stimuli/faces/face_n077_red.png\"\n                         style=\"width: 300px; height: 300px; border: 10px solid red; border-radius: 10px; margin-bottom: 30px;\">\n                </div>\n            ",
            "task": "phase2_slider",
            "time_elapsed": 40332,
            "trial_index": 46,
            "trial_type": "html-slider-response"
          },
          {
            "condition": "equal",
            "condition_code": "EXE",
            "debug_mode": true,
            "face_color": "red",
            "face_id": "n066",
            "face_is_good": false,
            "image_path": "stimuli/faces/face_n066_red.png",
            "majority_group": "red",
            "outcome": -5,
            "p1_type": "experimental",
            "p2_exposure": "equal",
            "participant_id": "P1770755656625",
            "phase": 2,
            "phase2_score": -3,
            "plugin_version": "2.1.0",
            "response": 86,
            "rt": 1497,
            "slider_rating": 86,
            "slider_start": 50,
            "stimulus": "\n                <div style=\"text-align: center;\">\n                    <img src=\"stimuli/faces/face_n066_red.png\"\n                         style=\"width: 300px; height: 300px; border: 10px solid red; border-radius: 10px; margin-bottom: 30px;\">\n                </div>\n            ",
            "task": "phase2_slider",
            "time_elapsed": 41829,
            "trial_index": 47,
            "trial_type": "html-slider-response"
          },
          {
            "condition": "equal",
            "condition_code": "EXE",
            "debug_mode": true,
            "face_color": "blue",
            "face_id": "n041",
            "face_is_good": false,
            "image_path": "stimuli/faces/face_n041_blue.png",
            "majority_group": "red",
            "outcome": 1,
            "p1_type": "experimental",
            "p2_exposure": "equal",
            "participant_id": "P1770755656625",
            "phase": 2,
            "phase2_score": -2,
            "plugin_version": "2.1.0",
            "response": 86,
            "rt": 1422,
            "slider_rating": 86,
            "slider_start": 50,
            "stimulus": "\n                <div style=\"text-align: center;\">\n                    <img src=\"stimuli/faces/face_n041_blue.png\"\n                         style=\"width: 300px; height: 300px; border: 10px solid blue; border-radius: 10px; margin-bottom: 30px;\">\n                </div>\n            ",
            "task": "phase2_slider",
            "time_elapsed": 43252,
            "trial_index": 48,
            "trial_type": "html-slider-response"
          },
          {
            "condition": "equal",
            "condition_code": "EXE",
            "debug_mode": true,
            "face_color": "blue",
            "face_id": "n040",
            "face_is_good": true,
            "image_path": "stimuli/faces/face_n040_blue.png",
            "majority_group": "red",
            "outcome": -5,
            "p1_type": "experimental",
            "p2_exposure": "equal",
            "participant_id": "P1770755656625",
            "phase": 2,
            "phase2_score": -7,
            "plugin_version": "2.1.0",
            "response": 20,
            "rt": 1322,
            "slider_rating": 20,
            "slider_start": 50,
            "stimulus": "\n                <div style=\"text-align: center;\">\n                    <img src=\"stimuli/faces/face_n040_blue.png\"\n                         style=\"width: 300px; height: 300px; border: 10px solid blue; border-radius: 10px; margin-bottom: 30px;\">\n                </div>\n            ",
            "task": "phase2_slider",
            "time_elapsed": 44575,
            "trial_index": 49,
            "trial_type": "html-slider-response"
          },
          {
            "condition": "equal",
            "condition_code": "EXE",
            "debug_mode": true,
            "face_color": "blue",
            "face_id": "n114",
            "face_is_good": true,
            "image_path": "stimuli/faces/face_n114_blue.png",
            "majority_group": "red",
            "outcome": 1,
            "p1_type": "experimental",
            "p2_exposure": "equal",
            "participant_id": "P1770755656625",
            "phase": 2,
            "phase2_score": -6,
            "plugin_version": "2.1.0",
            "response": 88,
            "rt": 1217,
            "slider_rating": 88,
            "slider_start": 50,
            "stimulus": "\n                <div style=\"text-align: center;\">\n                    <img src=\"stimuli/faces/face_n114_blue.png\"\n                         style=\"width: 300px; height: 300px; border: 10px solid blue; border-radius: 10px; margin-bottom: 30px;\">\n                </div>\n            ",
            "task": "phase2_slider",
            "time_elapsed": 45793,
            "trial_index": 50,
            "trial_type": "html-slider-response"
          }
        ],
        "phase3": [
          {
            "condition": "equal",
            "condition_code": "EXE",
            "debug_mode": true,
            "face_color": "blue",
            "face_id": 40,
            "face_is_good": true,
            "majority_group": "red",
            "p1_type": "experimental",
            "p2_exposure": "equal",
            "participant_id": "P1770755656625",
            "phase": 3,
            "plugin_version": "2.1.0",
            "rating": "bad",
            "response": 0,
            "rt": 113,
            "stimulus": "\n                <div style=\"text-align: center;\">\n                    <img src=\"stimuli/faces/face_040_blue.png\"\n                         style=\"width: 300px; height: 300px; border: 10px solid blue; border-radius: 10px; margin-bottom: 30px;\">\n                    <h3 style=\"margin-top: 20px;\">Do you think this person is good or bad?</h3>\n                </div>\n            ",
            "task": "phase3_goodbad",
            "time_elapsed": 48623,
            "trial_index": 53,
            "trial_type": "html-button-response"
          },
          {
            "condition": "equal",
            "condition_code": "EXE",
            "confidence_label": "Very unconfident",
            "confidence_level": 1,
            "debug_mode": true,
            "face_color": "blue",
            "face_id": 40,
            "face_is_good": true,
            "majority_group": "red",
            "p1_type": "experimental",
            "p2_exposure": "equal",
            "participant_id": "P1770755656625",
            "phase": 3,
            "plugin_version": "2.1.0",
            "previous_goodbad_rating": "bad",
            "response": 0,
            "rt": 109,
            "stimulus": "\n                <div style=\"text-align: center;\">\n                    <img src=\"stimuli/faces/face_040_blue.png\"\n                         style=\"width: 300px; height: 300px; border: 10px solid blue; border-radius: 10px; margin-bottom: 30px;\">\n                    <h3 style=\"margin-top: 20px;\">How confident are you that your choice is correct?</h3>\n                </div>\n            ",
            "task": "phase3_confidence",
            "time_elapsed": 48732,
            "trial_index": 56,
            "trial_type": "html-button-response"
          },
          {
            "condition": "equal",
            "condition_code": "EXE",
            "debug_mode": true,
            "face_color": "red",
            "face_id": 77,
            "face_is_good": false,
            "majority_group": "red",
            "p1_type": "experimental",
            "p2_exposure": "equal",
            "participant_id": "P1770755656625",
            "phase": 3,
            "plugin_version": "2.1.0",
            "rating": "bad",
            "response": 0,
            "rt": 108,
            "stimulus": "\n                <div style=\"text-align: center;\">\n                    <img src=\"stimuli/faces/face_077_red.png\"\n                         style=\"width: 300px; height: 300px; border: 10px solid red; border-radius: 10px; margin-bottom: 30px;\">\n                    <h3 style=\"margin-top: 20px;\">Do you think this person is good or bad?</h3>\n                </div>\n            ",
            "task": "phase3_goodbad",
            "time_elapsed": 48841,
            "trial_index": 57,
            "trial_type": "html-button-response"
          },
          {
            "condition": "equal",
            "condition_code": "EXE",
            "confidence_label": "Very unconfident",
            "confidence_level": 1,
            "debug_mode": true,
            "face_color": "red",
            "face_id": 77,
            "face_is_good": false,
            "majority_group": "red",
            "p1_type": "experimental",
            "p2_exposure": "equal",
            "participant_id": "P1770755656625",
            "phase": 3,
            "plugin_version": "2.1.0",
            "previous_goodbad_rating": "bad",
            "response": 0,
            "rt": 106,
            "stimulus": "\n                <div style=\"text-align: center;\">\n                    <img src=\"stimuli/faces/face_077_red.png\"\n                         style=\"width: 300px; height: 300px; border: 10px solid red; border-radius: 10px; margin-bottom: 30px;\">\n                    <h3 style=\"margin-top: 20px;\">How confident are you that your choice is correct?</h3>\n                </div>\n            ",
            "task": "phase3_confidence",
            "time_elapsed": 48948,
            "trial_index": 60,
            "trial_type": "html-button-response"
          },
          {
            "condition": "equal",
            "condition_code": "EXE",
            "debug_mode": true,
            "face_color": "blue",
            "face_id": 75,
            "face_is_good": false,
            "majority_group": "red",
            "p1_type": "experimental",
            "p2_exposure": "equal",
            "participant_id": "P1770755656625",
            "phase": 3,
            "plugin_version": "2.1.0",
            "rating": "bad",
            "response": 0,
            "rt": 110,
            "stimulus": "\n                <div style=\"text-align: center;\">\n                    <img src=\"stimuli/faces/face_075_blue.png\"\n                         style=\"width: 300px; height: 300px; border: 10px solid blue; border-radius: 10px; margin-bottom: 30px;\">\n                    <h3 style=\"margin-top: 20px;\">Do you think this person is good or bad?</h3>\n                </div>\n            ",
            "task": "phase3_goodbad",
            "time_elapsed": 49059,
            "trial_index": 61,
            "trial_type": "html-button-response"
          },
          {
            "condition": "equal",
            "condition_code": "EXE",
            "confidence_label": "Very unconfident",
            "confidence_level": 1,
            "debug_mode": true,
            "face_color": "blue",
            "face_id": 75,
            "face_is_good": false,
            "majority_group": "red",
            "p1_type": "experimental",
            "p2_exposure": "equal",
            "participant_id": "P1770755656625",
            "phase": 3,
            "plugin_version": "2.1.0",
            "previous_goodbad_rating": "bad",
            "response": 0,
            "rt": 109,
            "stimulus": "\n                <div style=\"text-align: center;\">\n                    <img src=\"stimuli/faces/face_075_blue.png\"\n                         style=\"width: 300px; height: 300px; border: 10px solid blue; border-radius: 10px; margin-bottom: 30px;\">\n                    <h3 style=\"margin-top: 20px;\">How confident are you that your choice is correct?</h3>\n                </div>\n            ",
            "task": "phase3_confidence",
            "time_elapsed": 49169,
            "trial_index": 64,
            "trial_type": "html-button-response"
          },
          {
            "condition": "equal",
            "condition_code": "EXE",
            "debug_mode": true,
            "face_color": "blue",
            "face_id": 90,
            "face_is_good": true,
            "majority_group": "red",
            "p1_type": "experimental",
            "p2_exposure": "equal",
            "participant_id": "P1770755656625",
            "phase": 3,
            "plugin_version": "2.1.0",
            "rating": "bad",
            "response": 0,
            "rt": 109,
            "stimulus": "\n                <div style=\"text-align: center;\">\n                    <img src=\"stimuli/faces/face_090_blue.png\"\n                         style=\"width: 300px; height: 300px; border: 10px solid blue; border-radius: 10px; margin-bottom: 30px;\">\n                    <h3 style=\"margin-top: 20px;\">Do you think this person is good or bad?</h3>\n                </div>\n            ",
            "task": "phase3_goodbad",
            "time_elapsed": 49278,
            "trial_index": 65,
            "trial_type": "html-button-response"
          },
          {
            "condition": "equal",
            "condition_code": "EXE",
            "confidence_label": "Very unconfident",
            "confidence_level": 1,
            "debug_mode": true,
            "face_color": "blue",
            "face_id": 90,
            "face_is_good": true,
            "majority_group": "red",
            "p1_type": "experimental",
            "p2_exposure": "equal",
            "participant_id": "P1770755656625",
            "phase": 3,
            "plugin_version": "2.1.0",
            "previous_goodbad_rating": "bad",
            "response": 0,
            "rt": 109,
            "stimulus": "\n                <div style=\"text-align: center;\">\n                    <img src=\"stimuli/faces/face_090_blue.png\"\n                         style=\"width: 300px; height: 300px; border: 10px solid blue; border-radius: 10px; margin-bottom: 30px;\">\n                    <h3 style=\"margin-top: 20px;\">How confident are you that your choice is correct?</h3>\n                </div>\n            ",
            "task": "phase3_confidence",
            "time_elapsed": 49388,
            "trial_index": 68,
            "trial_type": "html-button-response"
          },
          {
            "condition": "equal",
            "condition_code": "EXE",
            "debug_mode": true,
            "face_color": "blue",
            "face_id": 76,
            "face_is_good": true,
            "majority_group": "red",
            "p1_type": "experimental",
            "p2_exposure": "equal",
            "participant_id": "P1770755656625",
            "phase": 3,
            "plugin_version": "2.1.0",
            "rating": "bad",
            "response": 0,
            "rt": 109,
            "stimulus": "\n                <div style=\"text-align: center;\">\n                    <img src=\"stimuli/faces/face_076_blue.png\"\n                         style=\"width: 300px; height: 300px; border: 10px solid blue; border-radius: 10px; margin-bottom: 30px;\">\n                    <h3 style=\"margin-top: 20px;\">Do you think this person is good or bad?</h3>\n                </div>\n            ",
            "task": "phase3_goodbad",
            "time_elapsed": 49497,
            "trial_index": 69,
            "trial_type": "html-button-response"
          },
          {
            "condition": "equal",
            "condition_code": "EXE",
            "confidence_label": "Very unconfident",
            "confidence_level": 1,
            "debug_mode": true,
            "face_color": "blue",
            "face_id": 76,
            "face_is_good": true,
            "majority_group": "red",
            "p1_type": "experimental",
            "p2_exposure": "equal",
            "participant_id": "P1770755656625",
            "phase": 3,
            "plugin_version": "2.1.0",
            "previous_goodbad_rating": "bad",
            "response": 0,
            "rt": 109,
            "stimulus": "\n                <div style=\"text-align: center;\">\n                    <img src=\"stimuli/faces/face_076_blue.png\"\n                         style=\"width: 300px; height: 300px; border: 10px solid blue; border-radius: 10px; margin-bottom: 30px;\">\n                    <h3 style=\"margin-top: 20px;\">How confident are you that your choice is correct?</h3>\n                </div>\n            ",
            "task": "phase3_confidence",
            "time_elapsed": 49607,
            "trial_index": 72,
            "trial_type": "html-button-response"
          }
        ]
      }
    }
  }
}